"Time (s)","Linear Acceleration x (m/s^2)","Linear Acceleration y (m/s^2)","Linear Acceleration z (m/s^2)"
2.372043300E-2,0.000000000E0,0.000000000E0,0.000000000E0
2.872043300E-2,5.119016171E-1,-8.071880341E-1,-3.089989424E-1
3.064923500E-2,1.403682947E0,-1.251252174E0,-1.191535592E-1
3.503178700E-2,2.041082621E0,-1.546480179E0,6.287250519E-1
3.995782900E-2,1.787320256E0,-1.942612648E0,1.685463548E0
4.488387000E-2,1.958413124E-1,-2.506499290E0,2.446831703E0
4.980991200E-2,6.954212785E-1,-2.664810181E0,2.816502571E0
5.473595400E-2,1.788116217E0,-2.131326675E0,2.859765053E0
5.966199500E-2,9.100493193E-1,-1.950880051E0,2.555952549E0
6.458803700E-2,-4.075297117E-1,-1.451587677E0,1.526385307E0
6.951407900E-2,-9.579870701E-1,-2.485361099E-1,5.624412298E-1
7.444012000E-2,-3.001757860E-1,1.405782700E0,-8.880078793E-2
7.936616200E-2,3.800947666E-1,3.006023407E0,-1.427005529E0
8.429220400E-2,5.850448012E-1,4.481816292E0,-3.547595501E0
8.921824500E-2,4.346932769E-1,5.688004971E0,-5.696449280E0
9.414428700E-2,1.200324893E-1,6.568570137E0,-7.265026569E0
9.907032900E-2,-9.922133088E-1,7.149929047E0,-7.542519093E0
1.039963700E-1,-2.511283875E0,7.536857605E0,-7.108586311E0
1.089224120E-1,-3.036868811E0,7.502303123E0,-6.041925907E0
1.138484540E-1,-3.289870262E0,7.282734871E0,-4.051052570E0
1.187625160E-1,-3.431932926E0,7.141640663E0,-2.107613564E0
1.236765790E-1,-3.806778908E0,6.718648911E0,1.990007460E-1
1.285985060E-1,-4.439238548E0,6.020237923E0,1.110291839E0
1.335438180E-1,-4.840200424E0,5.051155567E0,1.209685802E0
1.384906930E-1,-4.489273071E0,4.229061127E0,7.229412198E-1
1.434459020E-1,-3.888059378E0,3.534902573E0,3.651261330E-2
1.484120480E-1,-3.303158522E0,2.893837452E0,-4.362460375E-1
1.533866830E-1,-2.458462238E0,2.165219784E0,-6.387516260E-1
1.583725160E-1,-1.352796316E0,1.396306992E0,-5.010783672E-1
1.633694950E-1,-2.534267902E-1,6.125268936E-1,-2.730034590E-1
1.683772560E-1,5.688591003E-1,-1.473436356E-1,-2.126017809E-1
1.733949640E-1,1.088107944E0,-9.543151855E-1,-4.201675653E-1
1.784214750E-1,1.735066295E0,-1.724102974E0,-6.199203730E-1
1.834551730E-1,2.490451336E0,-2.302592278E0,-1.070708513E0
1.884942350E-1,3.140841484E0,-2.383976936E0,-1.797652602E0
1.935364230E-1,3.532635927E0,-1.926386833E0,-2.968899727E0
1.985801730E-1,4.041078568E0,-1.317111969E0,-4.416212082E0
2.036176730E-1,4.763798714E0,-6.645526886E-1,-5.281300068E0
2.086145480E-1,5.758717537E0,-2.418060303E-1,-5.167843819E0
2.136114230E-1,7.268804550E0,-3.741846085E-1,-4.243771553E0
2.186082980E-1,8.979382515E0,-1.113575935E0,-2.293589830E0
2.236051730E-1,1.065653992E1,-2.064596176E0,7.043170929E-2
2.286020480E-1,1.265163136E1,-3.089322090E0,1.705449820E0
2.335989230E-1,1.488187504E1,-3.971453667E0,2.603933573E0
2.385957980E-1,1.653244209E1,-4.459518433E0,3.324082851E0
2.435926730E-1,1.729846573E1,-4.633150101E0,4.116070271E0
2.485895480E-1,1.694912148E1,-4.328687668E0,4.624273300E0
2.535864230E-1,1.591122150E1,-3.305868149E0,4.333995819E0
2.585832980E-1,1.391013908E1,-2.015935898E0,3.733639479E0
2.635801730E-1,1.140550900E1,-7.152214050E-1,3.429484844E0
2.685770480E-1,8.181080818E0,5.124111176E-1,3.556757927E0
2.735739230E-1,5.059764385E0,1.268259048E0,4.211648464E0
2.785707980E-1,2.547001362E0,1.551431656E0,5.602718353E0
2.835676730E-1,9.446747899E-1,1.665747166E0,6.000388145E0
2.885645480E-1,-8.356666565E-2,1.506694794E0,5.442786217E0
2.935614230E-1,-1.181675673E0,1.404183388E0,4.705276489E0
2.985582980E-1,-2.121677876E0,1.289432526E0,4.285363197E0
3.035551730E-1,-2.809637308E0,9.086103439E-1,3.759822369E0
3.085520480E-1,-2.913245916E0,3.859157562E-1,3.105050564E0
3.135489230E-1,-3.070936203E0,3.858089447E-2,2.488186121E0
3.185457980E-1,-3.806314945E0,1.403141022E-2,1.664486289E0
3.235426730E-1,-3.840745449E0,5.170822144E-3,1.383996487E0
3.285395480E-1,-3.357466459E0,1.881790161E-2,1.389321089E0
3.335364230E-1,-2.228589773E0,4.882154465E-1,1.843630314E0
3.385330370E-1,-1.291387320E0,1.342343330E0,1.360563755E0
3.435296520E-1,-7.815284729E-1,1.174007416E0,6.537778378E-1
3.485262660E-1,-9.074425697E-2,6.045455933E-1,1.051057816E0
3.535228810E-1,4.871496558E-1,3.805418015E-1,1.680606365E0
3.585194950E-1,6.879483461E-1,3.408832550E-1,1.964311481E0
3.635161100E-1,7.114503980E-1,3.363265991E-1,1.988308311E0
3.685184540E-1,6.705670953E-1,2.130928040E-1,2.114089966E0
3.735215270E-1,9.160493612E-1,1.669921875E-1,2.748943090E0
3.785014230E-1,1.485350251E0,3.724212646E-1,3.579008818E0
3.834821520E-1,1.236618519E0,5.358076096E-1,4.107102871E0
3.884643910E-1,8.576202989E-1,5.304279327E-1,4.426481247E0
3.934486620E-1,4.860629439E-1,5.877838135E-1,4.500128269E0
3.984353810E-1,2.427725792E-1,5.461521149E-1,4.211214066E0
4.034248080E-1,2.444461584E-1,5.129098892E-1,3.655068398E0
4.084171000E-1,1.941992342E-1,6.460847855E-1,2.918581009E0
4.134116830E-1,2.649438679E-1,7.541713715E-1,2.129708767E0
4.184091310E-1,2.988742292E-1,8.395891190E-1,1.381965995E0
4.234093910E-1,4.236378670E-1,8.291120529E-1,7.175883055E-1
4.284122040E-1,6.353074312E-1,8.467779160E-1,2.375631332E-1
4.334168910E-1,9.819727540E-1,7.856502533E-1,-4.843974113E-2
4.384234020E-1,1.383397222E0,6.205968857E-1,-6.003689766E-2
4.434312140E-1,1.538399816E0,4.026393890E-1,2.133219242E-1
4.484398080E-1,1.602114677E0,1.442251205E-1,6.096651554E-1
4.534486620E-1,1.722807527E0,-2.229928970E-1,9.479621649E-1
4.584575160E-1,1.843676090E0,-6.293954849E-1,1.089923859E0
4.634549120E-1,2.090529680E0,-1.008468628E0,1.211153626E0
4.684517870E-1,2.438921928E0,-1.408085823E0,1.340614200E0
4.734486620E-1,2.840502501E0,-1.664886475E0,1.500368953E0
4.784455370E-1,3.240285873E0,-1.688168526E0,1.522199988E0
4.834424120E-1,3.779720068E0,-1.767399788E0,1.571638465E0
4.884392870E-1,4.235659122E0,-1.868511200E0,1.803761244E0
4.934361620E-1,4.834828854E0,-1.945600510E0,2.418549776E0
4.984330370E-1,5.348942280E0,-1.884690285E0,3.138411522E0
5.034299120E-1,5.764157772E0,-1.805076599E0,3.787608862E0
5.084267870E-1,5.937063217E0,-1.827579498E0,4.266771793E0
5.134236620E-1,5.783701897E0,-1.974694252E0,4.510848045E0
5.184205370E-1,5.538488865E0,-2.249936104E0,4.553090096E0
5.234174120E-1,5.357635498E0,-2.607039452E0,4.450119019E0
5.284142870E-1,5.089199543E0,-3.064321518E0,4.291335106E0
5.334111620E-1,4.903108597E0,-3.497543335E0,4.120002747E0
5.384080370E-1,4.720426083E0,-3.826421738E0,3.924590588E0
5.434049120E-1,4.780638218E0,-4.058970451E0,3.766505241E0
5.484017870E-1,4.808427334E0,-4.151060104E0,3.583714008E0
5.533986620E-1,4.784650803E0,-3.961525917E0,3.423587799E0
5.583955370E-1,4.467671394E0,-3.613956451E0,3.392637253E0
5.633924120E-1,3.764385462E0,-3.221014023E0,3.740314960E0
5.683892870E-1,3.348456860E0,-2.877523422E0,4.395089626E0
5.733861620E-1,3.367419243E0,-2.769948959E0,5.176526546E0
5.783830370E-1,3.514160395E0,-2.834020615E0,5.960801125E0
5.833799120E-1,3.895591736E0,-3.034534454E0,6.622449398E0
5.883767870E-1,4.459738255E0,-3.334462166E0,7.037441254E0
5.933736620E-1,4.659581184E0,-3.733443260E0,6.866388798E0
5.983705370E-1,5.102915287E0,-4.105475426E0,5.934283257E0
6.033674120E-1,6.762692451E0,-3.902887344E0,5.076838493E0
6.083642870E-1,5.701432705E0,-4.922592163E0,3.814761639E0
6.133611620E-1,4.596900940E0,-5.644361496E0,2.713269711E0
6.183640790E-1,6.006909370E0,-4.519884109E0,2.494518995E0
6.233565790E-1,4.393017292E0,-5.102330208E0,1.923862934E0
6.283442870E-1,2.019623995E0,-5.529447556E0,2.250754356E0
6.333324640E-1,4.243698716E-1,-5.096591949E0,2.454020500E0
6.383215790E-1,-8.797584772E-1,-4.397275925E0,3.009654045E0
6.433119430E-1,-8.960943222E-1,-3.799532890E0,3.633676052E0
6.483036100E-1,-2.091630101E-1,-3.364440918E0,4.212892056E0
6.532967870E-1,4.726240635E-1,-2.765233994E0,4.591096878E0
6.582915270E-1,1.104637861E0,-2.373972893E0,5.176485062E0
6.632878290E-1,8.697187901E-1,-2.034674644E0,5.095021725E0
6.682856930E-1,3.891046047E-1,-1.806647301E0,3.609465599E0
6.732851200E-1,3.826348782E-1,-1.898434639E0,1.426854610E0
6.782859020E-1,7.313305140E-1,-2.048633575E0,-6.163325310E-1
6.832877770E-1,1.323803306E0,-1.974002838E0,-2.821191072E0
6.882904850E-1,1.895824075E0,-1.885327339E0,-4.640685558E0
6.932937660E-1,2.240084171E0,-1.841999054E0,-5.768590927E0
6.982973600E-1,2.290578842E0,-1.912316322E0,-6.656592369E0
7.033010060E-1,1.849380255E0,-1.995100021E0,-7.481006622E0
7.083011100E-1,1.200150609E0,-1.811470032E0,-8.117030144E0
7.132984540E-1,3.669528961E-1,-1.415226936E0,-7.949828625E0
7.182953290E-1,1.140233278E-1,-1.238333702E0,-7.380698204E0
7.232922040E-1,-9.865403175E-2,-1.284154892E0,-6.549767017E0
7.282890790E-1,-6.298435926E-1,-1.351354599E0,-5.536047459E0
7.332859540E-1,-1.732604980E0,-1.213790894E0,-4.225451469E0
7.382828290E-1,-2.874103069E0,-1.084778786E0,-2.939564228E0
7.432797040E-1,-3.321597576E0,-1.112230301E0,-1.553566098E0
7.482765790E-1,-3.358994961E0,-1.195732117E0,-3.806174397E-1
7.532734540E-1,-3.141927481E0,-1.375785828E0,4.906846285E-1
7.582703290E-1,-3.059735537E0,-1.778122902E0,1.032106876E0
7.632672040E-1,-2.800670147E0,-2.144536972E0,1.237493992E0
7.682640790E-1,-2.583297253E0,-2.427656174E0,1.213379741E0
7.732609540E-1,-2.653196812E0,-2.727889061E0,1.103096724E0
7.782578290E-1,-2.782817841E0,-2.878210068E0,5.600399971E-1
7.832547040E-1,-2.661450624E0,-3.071962357E0,-5.396111012E-1
7.882515790E-1,-2.397974491E0,-3.120638847E0,-1.211683631E0
7.932484540E-1,-1.591978550E0,-2.903861046E0,-1.667439699E0
7.982453290E-1,-9.181520343E-2,-2.492500305E0,-2.069488287E0
8.032422040E-1,1.813904047E0,-2.185246468E0,-2.545077562E0
8.082390790E-1,3.481809139E0,-1.933569908E0,-3.102761269E0
8.132359540E-1,4.177893639E0,-1.872642517E0,-3.734290600E0
8.182328290E-1,4.342361450E0,-1.686595917E0,-4.716077328E0
8.232297040E-1,3.313467026E0,-1.077441216E0,-6.095712662E0
8.282265790E-1,1.637376070E0,-1.982517242E-1,-7.936358452E0
8.332234540E-1,3.345145583E-1,9.039764404E-1,-1.004428959E1
8.382203290E-1,-3.842965961E-1,1.266697884E0,-1.226388836E1
8.432172040E-1,-2.504055500E-1,2.068358898E0,-1.036623764E1
8.482140790E-1,-5.188636780E-1,3.004621029E0,-6.938411713E0
8.532109540E-1,-3.883484006E-1,3.261616707E0,-5.670186043E0
8.582078290E-1,2.027221918E-1,3.515995502E0,-4.212239265E0
8.632047040E-1,7.890678644E-1,3.676584721E0,-2.940529108E0
8.682019950E-1,8.594433069E-1,3.665771961E0,-2.890608549E0
8.731988180E-1,7.715408206E-1,3.771234989E0,-3.648139715E0
8.781949120E-1,7.072088122E-1,3.724871635E0,-4.907133102E0
8.831910060E-1,8.443090916E-1,3.435560703E0,-6.578907490E0
8.881871000E-1,1.069118381E0,3.595210552E0,-6.999405861E0
8.931831930E-1,7.774455547E-1,3.688818932E0,-6.545793533E0
8.981792870E-1,4.053636789E-1,3.868994236E0,-5.945256710E0
9.031753810E-1,-5.529272556E-2,4.073249340E0,-5.642200470E0
9.081714750E-1,-3.641408086E-1,4.180312634E0,-5.517888069E0
9.131675680E-1,-7.066498399E-1,4.293462276E0,-5.582881927E0
9.181638700E-1,-1.114099741E0,4.494023800E0,-5.859737396E0
9.231604330E-1,-1.522952199E0,4.798449516E0,-6.132755756E0
9.281572560E-1,-1.850408673E0,5.160996437E0,-6.053754807E0
9.331543390E-1,-2.088158846E0,5.528898239E0,-5.705488205E0
9.381516830E-1,-2.334761143E0,5.880655766E0,-5.365656853E0
9.431490790E-1,-2.675812721E0,6.085271835E0,-5.003320694E0
9.481464750E-1,-2.853971481E0,6.179171562E0,-4.701938152E0
9.531438700E-1,-2.927714348E0,6.241345882E0,-4.382870674E0
9.581412660E-1,-2.907815218E0,6.202681065E0,-4.048627377E0
9.631386620E-1,-2.838419437E0,6.082557678E0,-3.737513781E0
9.681360580E-1,-2.799473524E0,5.916950226E0,-3.387364149E0
9.731334540E-1,-2.713173389E0,5.665462494E0,-3.012374401E0
9.781308500E-1,-2.650423050E0,5.459487438E0,-2.624037504E0
9.831282450E-1,-2.749160051E0,5.220061302E0,-2.274817944E0
9.881256410E-1,-2.881774187E0,4.818685532E0,-1.992734313E0
9.931230370E-1,-2.795298100E0,4.553918362E0,-1.687002659E0
9.981204330E-1,-2.572095633E0,4.286630630E0,-1.267260194E0
1.003117412E0,-2.207742453E0,3.976132870E0,-8.034368753E-1
1.008114287E0,-2.059290171E0,3.539029121E0,-6.515526772E-2
1.013111162E0,-2.029886961E0,2.928013325E0,9.264724255E-1
1.018108037E0,-1.602259994E0,2.343577385E0,2.289808989E0
1.023104912E0,-1.105034351E0,1.615757942E0,3.908349514E0
1.028101787E0,-7.552285194E-1,7.087678909E-1,5.888800144E0
1.033098662E0,-4.439784288E-1,-1.915130615E-1,8.514200211E0
1.038095537E0,-1.849544048E-2,-1.238825798E0,1.162144661E1
1.043092412E0,1.314899683E0,-2.829668045E0,1.550525093E1
1.048089287E0,2.947958708E0,-4.862174034E0,1.874067497E1
1.053086162E0,4.632639408E0,-7.274774551E0,1.975355911E1
1.058083037E0,6.143129349E0,-9.586070061E0,1.886177826E1
1.063079912E0,7.063920021E0,-1.131160736E1,1.695246887E1
1.068076787E0,6.629944801E0,-1.208327198E1,1.453396893E1
1.073073662E0,5.179752350E0,-1.157017326E1,1.203976631E1
1.078070537E0,3.685910463E0,-1.011995602E1,9.055961609E0
1.083067412E0,2.737265110E0,-7.969376564E0,6.571105003E0
1.088064287E0,2.551090717E0,-5.571790695E0,5.140594482E0
1.093061162E0,2.313719749E0,-3.214436531E0,3.973974228E0
1.098058037E0,1.828039050E0,-9.905118942E-1,3.799514532E0
1.103054912E0,5.827025175E-1,2.181816101E-1,4.263941765E0
1.108051787E0,-1.017290592E0,6.576051712E-1,4.197470188E0
1.113048662E0,-2.834287643E0,2.603712082E-1,3.463467598E0
1.118047204E0,-4.298913002E0,-7.049446106E-1,2.784518957E0
1.123043245E0,-4.834998608E0,-2.384095192E0,1.865589380E0
1.128038037E0,-4.806268692E0,-4.564867973E0,6.499507427E-1
1.133032829E0,-3.933571339E0,-6.693426132E0,-3.306512833E-1
1.138027620E0,-3.080150604E0,-8.527483940E0,-1.029802799E0
1.143022620E0,-3.146499157E0,-1.003612041E1,-7.911351919E-1
1.148017881E0,-2.915750980E0,-1.071356392E1,8.435826302E-1
1.153013402E0,-2.436145544E0,-1.080661964E1,2.374733686E0
1.158009183E0,-1.429371119E0,-9.627624512E0,4.630579948E0
1.163005433E0,-1.764043927E0,-8.179076195E0,3.629858494E0
1.168002204E0,-2.734878063E0,-6.041543007E0,-8.408999443E-1
1.172999287E0,-2.413569927E0,-3.541299820E0,-4.855566978E0
1.177996631E0,-8.985553384E-1,-7.795867920E-1,-7.424784184E0
1.182994235E0,2.618837357E-2,2.067440033E0,-1.043242741E1
1.187992100E0,-1.130928516E0,4.350281239E0,-1.282936382E1
1.192990225E0,-2.628880501E0,5.364730835E0,-1.378222466E1
1.197988610E0,-3.676836491E0,5.820186615E0,-1.379483986E1
1.202987048E0,-4.496372700E0,6.295954227E0,-1.285811996E1
1.207985485E0,-5.468529224E0,6.575860023E0,-1.140377045E1
1.212983923E0,-6.356005192E0,6.031891823E0,-8.692054749E0
1.217982360E0,-7.332323551E0,5.258906841E0,-5.420990944E0
1.222980381E0,-8.246901512E0,4.730338573E0,-3.235981464E0
1.227977464E0,-8.693620682E0,4.003706455E0,-1.814152122E0
1.232974339E0,-8.849802017E0,3.518732071E0,-1.044024467E0
1.237971214E0,-8.456175804E0,3.296146393E0,-2.098633528E0
1.242968089E0,-7.893086433E0,2.802306652E0,-3.260893822E0
1.247964964E0,-6.977947235E0,2.275835991E0,-3.531922102E0
1.252961839E0,-5.916951656E0,1.515443325E0,-3.589628696E0
1.257958714E0,-4.681140900E0,9.268569946E-1,-3.758987904E0
1.262955589E0,-2.746076822E0,8.305797577E-1,-4.772165298E0
1.267952464E0,-1.223572969E0,5.200138092E-1,-5.027082443E0
1.272949339E0,-8.245580792E-1,1.149806976E-1,-4.704217911E0
1.277946214E0,-1.021584988E0,-3.218727112E-1,-4.688560009E0
1.282943089E0,-1.661291242E0,-1.040503502E0,-4.755746841E0
1.287939964E0,-1.873140574E0,-1.452327728E0,-4.991469860E0
1.292936839E0,-1.866969109E0,-1.703631401E0,-5.115056038E0
1.297933714E0,-1.455701113E0,-1.935112953E0,-5.140689850E0
1.302930589E0,-5.580803156E-1,-2.105430603E0,-5.254943848E0
1.307927464E0,4.931794405E-1,-2.209320068E0,-5.433081627E0
1.312924339E0,2.111490488E0,-2.570949554E0,-6.116618156E0
1.317921214E0,4.036369324E0,-3.046064377E0,-6.551540375E0
1.322918089E0,6.054284573E0,-3.651236534E0,-6.503266335E0
1.327914964E0,8.436115265E0,-4.002743721E0,-6.191261292E0
1.332911839E0,1.072334480E1,-4.148015976E0,-5.196493626E0
1.337908714E0,1.271126652E1,-4.334856033E0,-3.506639957E0
1.342905589E0,1.413966751E1,-4.287091255E0,-1.964146137E0
1.347902464E0,1.420685577E1,-3.776852608E0,-9.184068441E-1
1.352899339E0,1.266434956E1,-2.734189034E0,8.793443441E-2
1.357896214E0,9.926207542E0,-1.366027832E0,7.572849393E-1
1.362893089E0,7.236263275E0,-2.627553940E-1,1.445818186E0
1.367891423E0,4.870911121E0,1.210460663E-1,2.143547535E0
1.372887829E0,2.857159376E0,1.558666229E-1,2.502110720E0
1.377882881E0,1.364257097E0,-1.138458252E-1,2.371074915E0
1.382877933E0,6.511878967E-2,-2.499742508E-1,1.894932866E0
1.387872985E0,-1.143865585E0,-4.031524658E-1,1.154652953E0
1.392868245E0,-2.474848270E0,-6.971092224E-1,1.255830765E0
1.397863766E0,-3.864799976E0,-8.278074265E-1,1.353937149E0
1.402859548E0,-5.002547264E0,-8.383655548E-1,1.262058377E0
1.407855589E0,-5.961910725E0,-7.194347382E-1,1.024242401E0
1.412851891E0,-6.081518173E0,-7.699041367E-1,1.534198999E0
1.417848454E0,-5.423327446E0,-1.218414307E0,2.218124151E0
1.422845277E0,-4.333086967E0,-1.741504669E0,2.424655437E0
1.427842360E0,-3.334232330E0,-2.140998840E0,2.337764263E0
1.432839704E0,-2.524389744E0,-2.369395256E0,2.445530891E0
1.437837308E0,-2.581486225E0,-2.476864815E0,2.868233681E0
1.442835173E0,-2.715667009E0,-2.188881874E0,3.204200745E0
1.447833298E0,-1.871158838E0,-1.175232887E0,3.850407362E0
1.452831475E0,3.665373623E-1,-4.606628418E-1,3.486102581E0
1.457829652E0,2.015199661E0,-1.572820663E0,3.162158489E0
1.462827829E0,3.635468245E0,-2.358363152E0,2.331638098E0
1.467826006E0,6.074346066E0,-1.277401924E0,2.351191282E0
1.472824183E0,7.172951221E0,-1.690778732E-1,1.716003180E0
1.477821943E0,6.993426800E0,1.093403816E0,1.655459642E0
1.482818975E0,4.131909370E0,6.503658295E-1,1.358016253E0
1.487815850E0,2.982908010E0,1.723458290E0,1.781310558E0
1.492812725E0,1.255953312E0,2.344964981E0,1.479296327E0
1.497809600E0,-3.808636665E-1,2.721179485E0,1.013425469E0
1.502806475E0,-1.820329905E0,3.081447601E0,5.361169577E-1
1.507803350E0,-3.162790060E0,2.828719616E0,2.382454872E-1
1.512800225E0,-3.186504602E0,3.251385212E0,1.048793793E-1
1.517797100E0,-3.725848198E0,2.630625725E0,6.999588013E-2
1.522793975E0,-2.664155960E0,3.563540936E0,6.288377047E-1
1.527790850E0,-2.037756920E0,4.201873779E0,8.499749899E-1
1.532787725E0,-2.167041302E0,4.160317898E0,1.252032280E0
1.537784600E0,-1.335484505E0,4.795758247E0,1.365231633E0
1.542781475E0,-4.230058193E-1,5.137169838E0,1.148931742E0
1.547778350E0,-2.095184326E-1,5.009482384E0,6.133965254E-1
1.552775225E0,4.007673264E-2,4.808781147E0,-2.720729113E-1
1.557772100E0,6.888891459E-1,4.776463032E0,-1.362005472E0
1.562768975E0,8.579790592E-1,4.692567348E0,-1.852467060E0
1.567765850E0,7.485133410E-1,4.261553764E0,-1.714455843E0
1.572762725E0,1.142117262E0,3.707530975E0,-1.057936192E0
1.577759600E0,2.502604485E0,3.525654793E0,-9.997868538E-2
1.582756475E0,2.818442583E0,2.280035496E0,5.734406710E-1
1.587753350E0,3.395803928E0,1.537723541E0,1.482048512E0
1.592750225E0,3.131571293E0,2.963981628E-1,2.257729292E0
1.597747100E0,3.723649740E0,1.480636597E-1,3.419434786E0
1.602743975E0,3.878564358E0,-6.092023849E-1,3.950277805E0
1.607740850E0,4.415192604E0,-1.127780914E0,4.552486420E0
1.612737725E0,6.033853531E0,-1.347801208E0,4.910705566E0
1.617736683E0,7.548655510E0,-1.681298256E0,4.767139435E0
1.622732725E0,8.133730888E0,-2.276392937E0,4.191230774E0
1.627727256E0,8.632822990E0,-2.404035568E0,3.737878323E0
1.632721787E0,9.123001099E0,-2.287768364E0,3.319701195E0
1.637716527E0,9.670089722E0,-1.999619484E0,2.961878061E0
1.642711527E0,1.007794762E1,-1.637850761E0,2.720172644E0
1.647706787E0,1.013963699E1,-1.486971855E0,2.746048212E0
1.652702308E0,9.995669365E0,-1.324442863E0,3.094909906E0
1.657698298E0,9.174741745E0,-1.199073792E0,3.213988781E0
1.662694808E0,7.958139896E0,-1.262195587E0,2.980896473E0
1.667691839E0,7.496066093E0,-1.556928635E0,2.618151903E0
1.672689183E0,7.328774929E0,-1.904546738E0,1.689125896E0
1.677686787E0,6.325484753E0,-2.431847572E0,1.007193804E0
1.682684652E0,5.372278214E0,-2.932003975E0,2.180897474E0
1.687682777E0,5.111897469E0,-3.364178658E0,3.015891552E0
1.692681162E0,4.376289845E0,-3.580663681E0,2.985185862E0
1.697679600E0,3.201160908E0,-4.067340851E0,3.015176058E0
1.702678037E0,1.067413211E0,-5.409098625E0,3.440178394E0
1.707676475E0,-8.742797971E-1,-6.693992615E0,2.999977827E0
1.712674912E0,-2.232526779E0,-7.604978561E0,3.536734819E0
1.717673141E0,-3.057566881E0,-8.131598473E0,5.518828869E0
1.722670277E0,-3.641341209E0,-8.665981293E0,6.115378380E0
1.727667152E0,-3.551644564E0,-9.575945854E0,5.446022987E0
1.732664027E0,-2.205180168E0,-9.929509163E0,5.742561340E0
1.737660902E0,-4.386290312E-1,-9.006062508E0,6.728472710E0
1.742657777E0,6.216140389E-1,-8.066922188E0,6.440934658E0
1.747654652E0,2.231774807E0,-7.744707108E0,4.483683586E0
1.752651527E0,3.503612757E0,-7.728363991E0,2.900114059E0
1.757648402E0,4.411396027E0,-7.518656731E0,2.539537907E0
1.762645277E0,5.038897991E0,-7.312929153E0,2.225835323E0
1.767642152E0,4.611583710E0,-6.701073647E0,1.779432654E0
1.772639027E0,3.559056997E0,-5.792100906E0,1.338116646E0
1.777635902E0,2.298110485E0,-4.926023483E0,7.900285721E-1
1.782632777E0,1.440209031E0,-4.245333672E0,5.315141678E-1
1.787629652E0,1.165072441E0,-4.106858253E0,1.819947958E0
1.792626527E0,6.099221110E-1,-4.018939018E0,3.311197281E0
1.797623402E0,-1.414045095E-1,-3.697205544E0,4.144283295E0
1.802620277E0,-6.362714767E-1,-3.508421898E0,4.154559135E0
1.807617152E0,-6.497182846E-1,-3.328744888E0,3.207890272E0
1.812614027E0,-2.687555552E-1,-3.142091751E0,1.959323168E0
1.817610902E0,2.678447366E-1,-2.901218414E0,6.369998455E-1
1.822607777E0,6.607291102E-1,-3.000814438E0,-9.893524647E-1
1.827604652E0,1.043103218E0,-3.072124481E0,-2.467674017E0
1.832601527E0,1.471247554E0,-2.883454323E0,-3.710355759E0
1.837598402E0,2.082971334E0,-2.786515236E0,-5.553227901E0
1.842595277E0,2.231426001E0,-2.548965454E0,-6.928411007E0
1.847592152E0,1.392620325E0,-2.639014244E0,-7.014899731E0
1.852589027E0,4.654963315E-1,-2.806933403E0,-7.311501980E0
1.857585902E0,-4.810477495E-1,-3.099946976E0,-7.435817719E0
1.862582777E0,-1.678692698E0,-2.831753731E0,-6.972945690E0
1.867582152E0,-3.175969124E0,-2.854055405E0,-6.249301910E0
1.872579964E0,-4.959518909E0,-2.991460800E0,-5.224853992E0
1.877570850E0,-6.068258762E0,-3.069292068E0,-4.032328606E0
1.882561891E0,-6.077892780E0,-2.968564987E0,-2.659823418E0
1.887553350E0,-5.837741852E0,-2.773820877E0,-1.102919221E0
1.892545485E0,-5.523001194E0,-2.717567444E0,2.149833441E-1
1.897538558E0,-5.223516464E0,-2.659047127E0,1.313331246E0
1.902532673E0,-4.816704273E0,-2.517344475E0,2.007727146E0
1.907527829E0,-4.309477806E0,-2.383682251E0,2.324468374E0
1.912524027E0,-3.670850754E0,-2.324911118E0,2.338310242E0
1.917521266E0,-2.753087521E0,-2.271245003E0,2.000454187E0
1.922519548E0,-1.565729380E0,-2.047729492E0,1.320351362E0
1.927518714E0,-5.345937610E-1,-1.878779411E0,3.127617836E-1
1.932518662E0,-1.078643799E-1,-1.718237877E0,-6.366567612E-1
1.937519235E0,2.787649930E-1,-1.620517731E0,-1.695495248E0
1.942520173E0,7.928568125E-1,-1.525454521E0,-2.617425203E0
1.947521370E0,2.067242861E-1,-8.310041428E-1,-3.447496653E0
1.952522673E0,1.217508912E0,7.900238037E-3,-4.277257919E0
1.957523662E0,4.630226493E-1,1.017053604E0,-6.118689537E0
1.962522100E0,5.473135710E-1,9.924259186E-1,-1.284187794E1
1.967518975E0,3.813469887E0,5.320272446E-1,-1.346202660E1
1.972515850E0,5.289340019E0,1.492979050E0,-1.323286915E1
1.977512725E0,5.808509827E0,1.995526791E0,-1.094558525E1
1.982509600E0,4.896824360E0,2.412765503E0,-6.059225082E0
1.987506475E0,3.932010651E0,2.659195423E0,-2.233045101E0
1.992503350E0,2.683899403E0,2.610646725E0,-1.056348443E0
1.997500225E0,2.249969482E0,2.410915375E0,-1.034144640E0
2.002497100E0,2.273710728E0,2.497756958E0,-1.337996602E0
2.007493975E0,2.014604092E0,2.457721233E0,-2.057564259E0
2.012490850E0,9.962116480E-1,2.509634018E0,-3.343472004E0
2.017487725E0,-1.283647716E-1,2.649496078E0,-4.754065990E0
2.022484600E0,-2.426526994E-1,2.804057598E0,-6.257739544E0
2.027481475E0,-2.822640538E-1,2.895231724E0,-7.295773983E0
2.032478350E0,-4.582633674E-1,3.128777981E0,-7.446520805E0
2.037475225E0,-4.596145451E-2,3.638014793E0,-7.102308273E0
2.042472100E0,-3.795858473E-2,3.932322025E0,-6.909934998E0
2.047468975E0,-3.498781621E-1,4.244174480E0,-6.885573387E0
2.052465850E0,-6.941755414E-1,4.559253216E0,-6.873599052E0
2.057462725E0,-9.488844275E-1,4.825285435E0,-6.799306393E0
2.062459600E0,-1.286373019E0,5.097673416E0,-6.686062813E0
2.067456475E0,-1.763475299E0,5.431299686E0,-6.436286926E0
2.072453350E0,-1.940826416E0,5.692248344E0,-5.947453022E0
2.077450225E0,-1.931863189E0,5.911916733E0,-5.647489548E0
2.082447100E0,-1.733218312E0,6.059386730E0,-5.499924183E0
2.087443975E0,-1.525259256E0,6.166063786E0,-5.374843597E0
2.092440850E0,-1.482548237E0,6.179477692E0,-5.181276321E0
2.097437725E0,-1.449866533E0,6.135543823E0,-4.957883835E0
2.102434600E0,-1.415973783E0,5.972184181E0,-4.676097870E0
2.107431475E0,-1.377143502E0,5.692135811E0,-4.433661938E0
2.112428350E0,-1.407939196E0,5.427042007E0,-4.180259705E0
2.117428350E0,-1.484800696E0,5.250785828E0,-3.767929077E0
2.122426266E0,-1.522154450E0,5.081718922E0,-3.388454914E0
2.127416266E0,-1.406560779E0,4.952973843E0,-3.044749022E0
2.132406683E0,-1.256416082E0,4.971699238E0,-2.682365417E0
2.137397620E0,-9.930810928E-1,5.182547569E0,-2.237880707E0
2.142389235E0,-6.632441878E-1,5.525135994E0,-1.683101654E0
2.147381787E0,-1.082866669E0,5.217775822E0,-1.672220349E0
2.152375381E0,-1.912975073E0,4.507868290E0,-1.162436962E0
2.157370173E0,-2.054896593E0,4.058000565E0,-3.206815720E-1
2.162366266E0,-1.871875882E0,3.484766006E0,5.809941292E-1
2.167363662E0,-1.834449053E0,2.647096634E0,1.481692314E0
2.172362204E0,-1.801524639E0,1.612138271E0,2.473258495E0
2.177361787E0,-1.741934538E0,6.881694794E-1,3.689803600E0
2.182362256E0,-1.815212011E0,-3.837337494E-1,5.044731140E0
2.187363350E0,-2.122668982E0,-1.570694923E0,7.042608261E0
2.192364964E0,-2.374420166E0,-2.773390770E0,1.000786400E1
2.197366943E0,-2.297587395E0,-4.162919044E0,1.370395660E1
2.202369027E0,-2.088790417E0,-5.665290833E0,1.711526489E1
2.207369860E0,4.180560410E-1,-7.887145042E0,1.876073074E1
2.212367985E0,2.827795982E0,-1.057479572E1,1.885787582E1
2.217364860E0,3.357451916E0,-1.258310509E1,1.636932945E1
2.222361735E0,3.356561661E0,-1.362775803E1,1.326984978E1
2.227358610E0,3.400837660E0,-1.353535748E1,1.086315155E1
2.232355485E0,3.332925558E0,-1.212574482E1,8.654474258E0
2.237352360E0,2.976785183E0,-9.709331512E0,6.447895050E0
2.242349235E0,2.496467113E0,-6.823275566E0,4.639174938E0
2.247346110E0,2.216379166E0,-4.044753075E0,3.814822435E0
2.252342985E0,1.692288876E0,-1.763278961E0,3.453172207E0
2.257339860E0,1.067505956E0,-2.192649841E-1,2.959581375E0
2.262336735E0,3.559468389E-1,7.202901840E-1,2.154023170E0
2.267333610E0,-3.559255600E-1,1.204910278E0,1.335171223E0
2.272330485E0,-1.315952778E0,8.912925720E-1,6.619822979E-1
2.277327360E0,-2.165317297E0,-7.086372375E-2,2.907419205E-1
2.282324235E0,-2.601879120E0,-1.383741379E0,4.175353050E-2
2.287321110E0,-3.083236217E0,-3.000998497E0,-3.139345646E-1
2.292317985E0,-3.810940266E0,-4.721460342E0,-5.496904850E-1
2.297314860E0,-4.583788872E0,-6.437747002E0,-4.515674114E-1
2.302311735E0,-4.250932217E0,-7.770379066E0,-4.877438545E-1
2.307308610E0,-3.612136126E0,-8.516211510E0,4.488322735E-1
2.312305485E0,-2.685527086E0,-8.979598045E0,2.625059605E0
2.317302360E0,-1.516814590E0,-9.200762749E0,4.219851494E0
2.322299235E0,-1.886605620E0,-8.826134682E0,4.456557274E0
2.327296110E0,-2.858088017E0,-7.436480522E0,2.059402227E0
2.332292985E0,-3.189768314E0,-5.222558975E0,-2.501230478E0
2.337289860E0,-2.797730923E0,-2.541938782E0,-5.880174637E0
2.342286735E0,-1.590962291E0,3.741197586E-1,-5.834988117E0
2.347283610E0,-9.880622625E-1,2.641043186E0,-5.846961975E0
2.352280485E0,-1.329904318E0,4.290641308E0,-7.139537811E0
2.357277360E0,-3.205041647E0,5.312295437E0,-9.515211105E0
2.362274235E0,-4.648299217E0,6.163209915E0,-1.222901726E1
2.367271266E0,-5.618552685E0,7.015767097E0,-1.366052246E1
2.372268402E0,-5.578830242E0,7.282748699E0,-1.315956306E1
2.377265537E0,-5.421887398E0,7.128749847E0,-1.111978436E1
2.382262673E0,-5.692200184E0,6.594422817E0,-8.878645897E0
2.387259808E0,-6.115411282E0,5.823949814E0,-6.757224083E0
2.392256943E0,-6.545641899E0,4.956801891E0,-5.208253860E0
2.397253870E0,-7.191560268E0,4.369521141E0,-4.502105713E0
2.402250745E0,-8.025802612E0,3.891757488E0,-4.499165058E0
2.407247620E0,-8.481304169E0,3.712109089E0,-4.123072624E0
2.412244495E0,-8.773988724E0,3.009783268E0,-4.409130573E0
2.417241370E0,-8.321118355E0,2.077996731E0,-4.078977108E0
2.422238245E0,-7.056808949E0,1.649484158E0,-2.581201553E0
2.427235120E0,-6.445704937E0,5.786695480E-1,-1.469722271E0
2.432231995E0,-4.407780170E0,6.348705292E-1,-5.074356794E-1
2.437228870E0,-2.534741879E0,4.290513992E-1,-6.787731647E-1
2.442225745E0,-1.422945738E0,-2.028827667E-1,-2.173014879E0
2.447222620E0,-1.028376102E0,-6.568918228E-1,-3.927029133E0
2.452219495E0,-1.571069121E0,-1.259543419E0,-5.871148109E0
2.457216370E0,-1.627120256E0,-1.830270767E0,-8.289489746E0
2.462213245E0,-9.406124949E-1,-2.258847237E0,-1.035392380E1
2.467210120E0,-8.509428799E-2,-2.555121422E0,-1.090214920E1
2.472206995E0,8.430776596E-1,-2.891745567E0,-1.048175430E1
2.477203870E0,1.558592081E0,-3.185140610E0,-9.982595444E0
2.482200745E0,2.469236851E0,-3.798820496E0,-9.407021523E0
2.487197620E0,4.159789085E0,-4.428322792E0,-8.918704033E0
2.492194495E0,6.030442715E0,-5.180856705E0,-8.525296211E0
2.497191370E0,7.629817963E0,-5.981782913E0,-7.866589546E0
2.502188245E0,8.733241081E0,-6.383837700E0,-6.743482113E0
2.507185120E0,9.559573174E0,-6.447953224E0,-5.005156517E0
2.512181995E0,1.019608974E1,-6.600905418E0,-3.079614401E0
2.517178870E0,1.128708267E1,-6.238391876E0,-9.526757002E-1
2.522175745E0,1.155640602E1,-5.474608421E0,1.394556999E0
2.527172620E0,1.070852280E1,-4.339455605E0,4.565336227E0
2.532169495E0,8.857410431E0,-3.031980515E0,7.270869255E0
2.537166370E0,6.204976559E0,-2.109195709E0,8.775135994E0
2.542163245E0,3.664171457E0,-1.256622314E0,9.407630920E0
2.547160120E0,1.904527903E0,-1.316118240E-1,9.367177010E0
2.552156995E0,5.601715446E-1,6.872377396E-1,8.725541115E0
2.557153870E0,-4.695765972E-1,1.035853386E0,7.391227245E0
2.562150745E0,-9.785912633E-1,1.094602585E0,5.652264118E0
2.567147620E0,-9.399029016E-1,1.356483459E0,3.674634457E0
2.572144495E0,-1.917117476E0,1.660551071E0,1.765980959E0
2.577141370E0,-3.810813427E0,1.736289024E0,5.475972891E-1
2.582138245E0,-3.676908493E0,2.796393394E0,8.110576868E-2
2.587135120E0,-3.826576471E0,3.170233250E0,1.016492248E0
2.592131995E0,-3.958193064E0,2.871148586E0,9.596478939E-1
2.597128870E0,-3.887842178E0,2.701388359E0,2.496175170E-1
2.602125745E0,-2.674917459E0,2.986105442E0,2.679912448E-1
2.607122620E0,-3.083677769E0,2.564568043E0,2.046182752E-1
2.612119495E0,-3.096790314E0,2.040737629E0,2.654221058E-1
2.617116370E0,-1.995183349E0,2.790109634E0,6.170997620E-1
2.622114912E0,4.156380296E-1,4.224844933E0,8.280577064E-1
2.627112620E0,6.395840645E-1,4.110003948E0,1.272516251E-1
2.632109495E0,-5.409716368E-1,3.167759895E0,-2.044254541E-1
2.637106370E0,2.928556800E-1,4.123289108E0,-1.278836727E-1
2.642103245E0,1.103202105E0,5.246224880E0,-5.167472363E-2
2.647100120E0,-4.529904127E-1,3.530868530E0,1.289781332E-1
2.652096995E0,5.348344445E-1,4.132223129E0,5.635436177E-1
2.657093870E0,-6.233453751E-1,2.355196953E0,9.465144873E-1
2.662090745E0,-7.472658157E-2,2.058068752E0,1.418547034E0
2.667087620E0,-9.036463499E-1,7.305784225E-1,1.684190154E0
2.672084495E0,2.791822553E-1,1.456634521E0,2.230731964E0
2.677081370E0,2.546991706E-1,1.083721161E0,2.392952204E0
2.682078245E0,-3.022149801E-1,7.374486923E-1,2.265658140E0
2.687075120E0,-4.428184032E-2,1.230250359E0,2.156011343E0
2.692071995E0,-3.659586906E-1,9.470663071E-1,1.693692088E0
2.697068870E0,3.752106428E-1,1.763895512E0,1.525879025E0
2.702065745E0,7.748061419E-1,1.871116638E0,1.242080450E0
2.707062620E0,2.866673470E-2,8.180332184E-1,7.055535316E-1
2.712059495E0,1.045773506E0,1.464464188E0,4.890853167E-1
2.717056370E0,9.773305058E-1,9.190702438E-1,2.371511459E-1
2.722053245E0,1.658123136E0,1.178631783E0,1.735348701E-1
2.727050120E0,2.039920807E0,1.007342339E0,2.505961657E-1
2.732046995E0,1.586548448E0,-4.344272614E-2,2.080874443E-1
2.737043870E0,2.333682060E0,2.465724945E-2,4.451572895E-1
2.742040745E0,3.022933245E0,-1.077919006E-1,9.449704885E-1
2.747037620E0,3.298378468E0,-5.442609787E-1,1.219403267E0
2.752034495E0,3.263138771E0,-1.836524010E0,1.615753412E0
2.757031370E0,3.308731794E0,-2.880938530E0,1.908878803E0
2.762028245E0,3.765913248E0,-3.894392014E0,2.790421724E0
2.767025120E0,4.066214085E0,-4.006744385E0,3.108910322E0
2.772021995E0,3.518395901E0,-4.575449944E0,3.373453140E0
2.777018870E0,3.067028999E0,-4.700886726E0,3.343687534E0
2.782015745E0,3.561648846E0,-4.542613029E0,3.942885399E0
2.787012620E0,3.830110788E0,-4.100947380E0,4.111654282E0
2.792009495E0,4.539325714E0,-3.662688255E0,4.513110638E0
2.797006370E0,3.909804106E0,-3.251956940E0,4.282030582E0
2.802003245E0,3.999034882E0,-2.838612556E0,3.724609375E0
2.807000120E0,3.885126591E0,-3.167984009E0,3.289331675E0
2.811996995E0,4.719225883E0,-2.820624352E0,3.077157974E0
2.816993870E0,5.927505016E0,-2.252145767E0,2.791125536E0
2.821990745E0,6.624154091E0,-1.611594200E0,2.306911230E0
2.826987620E0,6.212453842E0,-2.386601448E0,2.927538872E0
2.831984495E0,4.890972137E0,-2.986308098E0,2.499768257E0
2.836981370E0,4.594925404E0,-2.761096954E0,1.110102296E0
2.841978245E0,3.777513981E0,-3.062993050E0,1.609975815E0
2.846975120E0,2.400571823E0,-3.216209412E0,2.824555874E0
2.851971995E0,1.042778015E0,-3.789590836E0,4.129549503E0
2.856968870E0,1.888067722E0,-2.681742668E0,4.537966728E0
2.861965745E0,9.623075128E-1,-3.527694702E0,5.678727627E0
2.866963558E0,1.105921030E0,-3.814332008E0,6.138532639E0
2.871961787E0,3.214195251E0,-2.700127602E0,5.968161583E0
2.876958975E0,4.157120228E0,-2.662967682E0,5.644917965E0
2.881955850E0,4.034898281E0,-3.809459686E0,4.699060440E0
2.886952725E0,4.221057415E0,-4.394945145E0,3.471355915E0
2.891949600E0,4.632380486E0,-4.600093842E0,2.559290171E0
2.896946475E0,4.854113579E0,-4.887511253E0,1.803551555E0
2.901943350E0,4.827014446E0,-5.078145981E0,1.226449728E0
2.906940225E0,4.614817142E0,-5.215624809E0,9.788326025E-1
2.911937100E0,4.206726074E0,-5.245295525E0,1.048241854E0
2.916933975E0,3.709332943E0,-5.186552048E0,1.414143324E0
2.921930850E0,3.017004013E0,-4.912837982E0,2.119966984E0
2.926927725E0,2.145717621E0,-4.443696022E0,3.022861004E0
2.931924600E0,1.359677434E0,-4.073360443E0,4.000291824E0
2.936921475E0,7.099289298E-1,-3.710710526E0,5.176585674E0
2.941918350E0,-8.443546295E-2,-3.126302719E0,5.633786201E0
2.946915225E0,-8.588416576E-1,-2.548002243E0,5.493983269E0
2.951912100E0,-1.672919035E0,-2.033788681E0,4.839995384E0
2.956908975E0,-2.393913984E0,-1.620001793E0,3.640698433E0
2.961905850E0,-2.234890938E0,-1.663173676E0,2.279100895E0
2.966902725E0,-1.631971836E0,-1.753980637E0,8.391124010E-1
2.971899600E0,-1.260335684E0,-1.665405273E0,-6.982728839E-1
2.976896475E0,-9.728165865E-1,-1.603558540E0,-2.044160843E0
2.981893350E0,-1.164882541E0,-1.762173653E0,-3.103687763E0
2.986890225E0,-1.332124472E0,-2.131280899E0,-3.819500208E0
2.991887100E0,-1.698658109E0,-2.617267609E0,-4.138467312E0
2.996883975E0,-2.166986942E0,-3.059661865E0,-4.514342308E0
3.001880850E0,-2.818970680E0,-3.561284065E0,-4.533479691E0
3.006877725E0,-3.542225838E0,-3.968899727E0,-3.988460064E0
3.011874600E0,-4.527721405E0,-4.256165504E0,-3.658203125E0
3.016871475E0,-5.262971401E0,-4.509125710E0,-3.453270912E0
3.021868350E0,-5.394223213E0,-4.734819412E0,-2.690032959E0
3.026865225E0,-5.166970253E0,-4.533787727E0,-1.857586622E0
3.031862100E0,-5.763746738E0,-4.289158821E0,-1.266286016E0
3.036858975E0,-5.392008305E0,-4.381071091E0,-9.540404081E-1
3.041855850E0,-4.365941525E0,-4.337752342E0,-4.402954578E-1
3.046852725E0,-3.732773304E0,-3.965691566E0,-1.278738976E-1
3.051849600E0,-3.513914108E0,-3.475998878E0,1.808367968E-1
3.056846475E0,-3.333828449E0,-3.055514336E0,7.719955444E-1
3.061843350E0,-3.338154316E0,-2.512753487E0,8.848598003E-1
3.066840225E0,-3.301715612E0,-2.314375877E0,9.142320156E-1
3.071837100E0,-3.140181780E0,-2.122569084E0,6.452503204E-1
3.076833975E0,-2.867728710E0,-2.059234619E0,-6.729054451E-2
3.081830850E0,-2.547422886E0,-2.081004143E0,-9.807232618E-1
3.086827725E0,-2.455873966E0,-1.979493141E0,-2.075108528E0
3.091824600E0,-2.270956516E0,-1.833209991E0,-3.231034994E0
3.096821475E0,-2.059735775E0,-1.760993004E0,-4.783305168E0
3.101818350E0,-7.069422007E-1,-1.825598717E0,-7.463098526E0
3.106815225E0,6.808700562E-1,-1.968011856E0,-1.009589577E1
3.111812100E0,2.013605595E0,-1.644646645E0,-1.208338642E1
3.116810381E0,2.142071009E0,-1.252227783E0,-1.135347748E1
3.121808610E0,1.568540573E0,-5.867137909E-1,-8.905817032E0
3.126805745E0,1.413853407E0,2.091932297E-1,-6.545240879E0
3.131802725E0,1.451770782E0,9.744071960E-1,-4.979001045E0
3.136799600E0,1.844456553E0,1.686594009E0,-3.933156729E0
3.141796475E0,1.832641721E0,2.532183170E0,-2.665674925E0
3.146793350E0,1.805786014E0,2.763284206E0,-3.615852594E0
3.151790225E0,1.991496563E0,2.821324825E0,-3.481083632E0
3.156787100E0,2.086535692E0,2.651740074E0,-3.384357929E0
3.161783975E0,2.100392103E0,2.678153515E0,-3.385679483E0
3.166780850E0,2.541121483E0,2.598815441E0,-3.647816181E0
3.171777725E0,2.910436153E0,2.571934223E0,-4.174671650E0
3.176774600E0,2.900445700E0,2.499456882E0,-4.525545120E0
3.181771475E0,2.447902203E0,2.438993931E0,-4.587896824E0
3.186768350E0,1.631715178E0,2.587110043E0,-4.982911587E0
3.191765225E0,1.236772776E0,2.774192333E0,-5.500865936E0
3.196762100E0,1.166457176E0,3.009842873E0,-5.818631172E0
3.201758975E0,8.825719357E-1,3.497374535E0,-5.912523270E0
3.206755850E0,4.533308744E-1,4.104904652E0,-6.031606674E0
3.211752725E0,4.917336255E-2,4.672277927E0,-6.168148994E0
3.216749600E0,-3.764528036E-1,5.245538712E0,-6.368918419E0
3.221746475E0,-1.882472485E-1,5.604969978E0,-6.415603161E0
3.226743350E0,-2.151179314E-1,5.899292946E0,-6.449494839E0
3.231740225E0,-4.501469135E-1,6.215034485E0,-6.422221184E0
3.236737100E0,-9.738270044E-1,6.547601700E0,-6.343031406E0
3.241733975E0,-1.470731020E0,6.978485584E0,-6.166237831E0
3.246730850E0,-1.671641350E0,7.287784576E0,-6.044522285E0
3.251727725E0,-1.565029144E0,7.494874954E0,-5.989639759E0
3.256724600E0,-1.466775298E0,7.688479424E0,-5.862549305E0
3.261721475E0,-1.582579017E0,7.858816147E0,-5.544175148E0
3.266718350E0,-1.577787638E0,7.855210781E0,-5.242854595E0
3.271715225E0,-1.479133844E0,7.790300369E0,-4.991960526E0
3.276712100E0,-1.289010763E0,7.697612762E0,-4.846282959E0
3.281708975E0,-1.083932877E0,7.541307449E0,-4.692928314E0
3.286705850E0,-8.262588978E-1,7.297183990E0,-4.455915451E0
3.291702725E0,-4.165360034E-1,6.917076588E0,-3.863471031E0
3.296699600E0,2.140119672E-2,6.400657654E0,-3.275734425E0
3.301696475E0,1.748936027E-1,5.807514191E0,-2.652622700E0
3.306693350E0,3.008156121E-1,5.166029930E0,-1.884850383E0
3.311690225E0,4.230219722E-1,4.502173901E0,-9.829614162E-1
3.316687100E0,5.441036820E-1,3.779471874E0,1.351437569E-1
3.321683975E0,7.673274875E-1,2.951926231E0,1.560809612E0
3.326680850E0,6.074798107E-1,2.059395790E0,3.338650942E0
3.331677725E0,6.064310074E-1,8.711023331E-1,5.755965233E0
3.336674600E0,1.343765259E0,-5.875492096E-1,8.754465103E0
3.341671475E0,1.558273315E0,-2.140686989E0,1.226069641E1
3.346668350E0,1.740360498E0,-4.313734055E0,1.649931335E1
3.351665225E0,2.447952509E0,-6.821271896E0,2.055911255E1
3.356662100E0,4.011976719E0,-9.405784607E0,2.084181023E1
3.361658975E0,4.154762745E0,-1.306574821E1,1.999121284E1
3.366657568E0,3.614400625E0,-1.586675835E1,1.696015549E1
3.371656162E0,2.988107920E0,-1.703595352E1,1.314886379E1
3.376651995E0,2.286924124E0,-1.665615463E1,1.003703690E1
3.381647829E0,1.469309092E0,-1.478195667E1,7.390023232E0
3.386643662E0,1.387861013E0,-1.171698856E1,5.539421082E0
3.391639495E0,1.308949709E0,-8.312502861E0,4.645690918E0
3.396635329E0,1.417624712E0,-5.143050194E0,4.025772095E0
3.401631318E0,1.062099099E0,-2.588202477E0,3.350219250E0
3.406627568E0,4.240577817E-1,-7.829475403E-1,2.679968357E0
3.411624079E0,-8.109174669E-2,4.536428452E-1,2.039865255E0
3.416620850E0,-7.789552212E-1,1.388143063E0,1.387120724E0
3.421617881E0,-1.735511661E0,1.923463821E0,6.296091080E-1
3.426615173E0,-2.964687824E0,1.953650475E0,-1.844899654E-1
3.431612568E0,-4.512562752E0,1.597288609E0,-9.484713078E-1
3.436609964E0,-5.826645374E0,8.670988083E-1,-1.305550337E0
3.441607360E0,-6.417688847E0,-8.149147034E-2,-1.188362122E0
3.446604756E0,-6.632714748E0,-1.136262894E0,-7.063589096E-1
3.451602152E0,-7.021142960E0,-2.364515305E0,-3.299193382E-1
3.456599548E0,-7.215219975E0,-3.756978035E0,-3.495388031E-1
3.461596943E0,-6.852569580E0,-5.419498444E0,-3.623793125E-1
3.466594339E0,-6.320008755E0,-7.503910065E0,2.735090256E-1
3.471591735E0,-5.628650665E0,-9.526731491E0,2.042844534E0
3.476589131E0,-4.721093178E0,-1.119196892E1,4.560685158E0
3.481586527E0,-3.082363129E0,-1.194759655E1,6.480235100E0
3.486583923E0,-6.497882009E-1,-1.099630165E1,7.027009487E0
3.491581318E0,1.013659000E0,-8.514701843E0,4.852369785E0
3.496578714E0,6.355444789E-1,-5.380557060E0,-4.221611023E-1
3.501575954E0,-1.580581307E0,-2.162813187E0,-5.247790813E0
3.506572933E0,-2.655121088E0,7.895545959E-1,-7.509423256E0
3.511569808E0,-2.795857191E0,3.082407951E0,-9.312665939E0
3.516566683E0,-3.882632732E0,4.828222752E0,-1.056884384E1
3.521563558E0,-5.192796230E0,6.312452316E0,-1.110887909E1
3.526560433E0,-5.422856808E0,7.735801220E0,-1.174834251E1
3.531557308E0,-5.160318851E0,9.077688217E0,-1.282275391E1
3.536554183E0,-4.759095669E0,9.994216919E0,-1.342639542E1
3.541551058E0,-4.720675945E0,1.017497253E1,-1.292162037E1
3.546547933E0,-5.017626286E0,9.820225716E0,-1.131377220E1
3.551544808E0,-5.214418888E0,9.234215736E0,-9.987615585E0
3.556541683E0,-5.495875359E0,8.345720291E0,-8.645413399E0
3.561538558E0,-5.791331768E0,6.969305038E0,-7.309056282E0
3.566535433E0,-5.858179569E0,5.541710854E0,-6.256455421E0
3.571532308E0,-6.845736027E0,4.205870628E0,-4.874085903E0
3.576529183E0,-7.770489693E0,3.132936001E0,-3.135876894E0
3.581526058E0,-7.810655594E0,2.367331982E0,-2.122763395E0
3.586522933E0,-7.045214653E0,1.685613632E0,-2.165402174E0
3.591519808E0,-5.504500389E0,8.358497620E-1,-2.630529881E0
3.596516683E0,-3.910104036E0,-6.018543243E-2,-3.347303867E0
3.601513558E0,-2.763480902E0,-9.378938675E-1,-4.502806664E0
3.606510433E0,-1.846707106E0,-1.615696907E0,-5.392093658E0
3.611507308E0,-9.008910060E-1,-1.730457306E0,-5.959568977E0
3.616506214E0,2.916855812E-1,-1.771000862E0,-6.727947235E0
3.621506214E0,1.289411783E0,-1.811880112E0,-7.236746788E0
3.626497360E0,2.217154503E0,-2.185455322E0,-7.272634506E0
3.631488610E0,3.303812981E0,-2.893222809E0,-7.642235756E0
3.636480225E0,4.408301353E0,-4.180418968E0,-7.683026314E0
3.641472464E0,5.937697411E0,-5.710403442E0,-7.787179947E0
3.646465485E0,7.860676289E0,-7.075507164E0,-7.479928970E0
3.651459391E0,9.683711052E0,-8.133983612E0,-6.897320271E0
3.656454339E0,1.121959972E1,-8.859507561E0,-6.168029785E0
3.661450329E0,1.212337399E1,-8.960314751E0,-4.961134911E0
3.666447360E0,1.257498169E1,-8.461099625E0,-3.820468426E0
3.671445433E0,1.268031216E1,-7.487358093E0,-2.773107290E0
3.676444443E0,1.219268990E1,-5.822477341E0,-1.814604521E0
3.681444235E0,1.084405327E1,-3.606915474E0,-1.113702536E0
3.686444704E0,9.251191139E0,-1.548069000E0,-6.833493710E-2
3.691445589E0,7.793800354E0,-2.947044373E-1,1.044402003E0
3.696446735E0,6.505300522E0,1.276044846E-1,2.072880983E0
3.701448037E0,5.201575756E0,3.609304428E-1,2.964279652E0
3.706448818E0,3.977296829E0,6.135978699E-1,3.750229597E0
3.711447568E0,2.676964045E0,1.019559860E0,4.431701660E0
3.716444443E0,1.558537245E0,1.332340240E0,4.921168804E0
3.721441318E0,5.653664470E-1,1.616889000E0,5.373416901E0
3.726438193E0,8.458766341E-2,1.914207935E0,5.658601284E0
3.731435068E0,-4.885589778E-1,2.030749798E0,5.585842609E0
3.736431943E0,-1.183222651E0,1.981319904E0,4.955859184E0
3.741428818E0,-1.987792492E0,1.845248699E0,3.882003069E0
3.746425693E0,-2.629197121E0,1.842871189E0,2.316964149E0
3.751422568E0,-2.185734272E0,1.986063004E0,7.369919419E-1
3.756419443E0,-2.457651138E0,1.932582855E0,8.689648658E-2
3.761416318E0,-2.585602522E0,1.685133934E0,5.120104551E-1
3.766413193E0,-2.349223614E0,1.361197472E0,3.475435376E-1
3.771410068E0,-2.283894300E0,1.226391792E0,-6.939738989E-2
3.776406943E0,-2.399092197E0,1.041223526E0,-2.309799790E-1
3.781403818E0,-2.168835163E0,1.013818741E0,-5.618357062E-1
3.786400693E0,-1.964348793E0,9.070425034E-1,-1.039264560E0
3.791397568E0,-2.038500309E0,7.520141602E-1,-1.239252090E0
3.796394443E0,-2.206954718E0,8.214378357E-1,-1.169226408E0
3.801391318E0,-2.221389055E0,8.972187042E-1,-9.513733387E-1
3.806388193E0,-2.314022779E0,1.036725998E0,-8.091672659E-1
3.811385068E0,-2.499327183E0,1.225549698E0,-3.323810697E-1
3.816381943E0,-2.753311396E0,1.164728165E0,5.241919756E-1
3.821378818E0,-2.891972780E0,1.158613205E0,1.597728252E0
3.826375693E0,-2.896162987E0,1.288656235E0,2.515762329E0
3.831372568E0,-2.989569187E0,1.554802895E0,3.098368645E0
3.836369443E0,-2.880004406E0,1.756020546E0,3.441219807E0
3.841366318E0,-2.451380014E0,1.899590969E0,3.427741528E0
3.846363193E0,-1.839216590E0,1.925787926E0,3.336340904E0
3.851360068E0,-1.259751558E0,1.846657753E0,3.048396826E0
3.856356943E0,-9.089898467E-1,1.628663063E0,2.493850708E0
3.861353818E0,-7.723799944E-1,1.379542351E0,1.903418303E0
3.866352985E0,-4.436606467E-1,1.218846321E0,1.483703256E0
3.871355120E0,-1.334892809E-1,9.812393188E-1,9.578160048E-1
3.876343245E0,-2.141726315E-1,8.293371201E-1,4.413212538E-1
3.881331735E0,-2.669305503E-1,6.553506851E-1,1.518234015E-1
3.886320850E0,-1.507471204E-1,5.191497803E-1,1.197013855E-1
3.891310850E0,-2.661329508E-2,3.155307770E-1,3.056542873E-1
3.896301995E0,2.145133317E-1,8.058261871E-2,5.606805086E-1
3.901294548E0,6.053123474E-1,-1.952428818E-1,8.276552558E-1
3.906288662E0,9.400121570E-1,-3.946514130E-1,1.137559652E0
3.911284339E0,1.346047163E0,-4.819345474E-1,1.507295609E0
3.916281579E0,1.799866080E0,-6.079893112E-1,1.934336901E0
3.921280277E0,2.428342819E0,-8.995199203E-1,2.485290289E0
3.926280277E0,3.154906273E0,-1.315394402E0,3.115657806E0
3.931281475E0,4.014522076E0,-1.764106750E0,3.754391670E0
3.936283610E0,4.932484627E0,-2.238017082E0,4.301905632E0
3.941286423E0,5.692710876E0,-2.473628998E0,4.597364426E0
3.946289652E0,6.282727242E0,-2.538002968E0,4.638374329E0
3.951293037E0,6.642047882E0,-2.555639267E0,4.449425697E0
3.956295485E0,6.985321045E0,-2.636650085E0,4.122525215E0
3.961294860E0,7.132320404E0,-2.738083839E0,3.630630016E0
3.966291735E0,7.071522236E0,-2.771637917E0,3.087540388E0
3.971288610E0,6.956802368E0,-2.835823059E0,2.657297373E0
3.976285485E0,6.714159966E0,-2.832721710E0,2.240189314E0
3.981282360E0,6.377362728E0,-2.822363853E0,1.918070793E0
3.986279235E0,6.092107773E0,-2.909871101E0,1.819578409E0
3.991276110E0,5.750406265E0,-2.826886177E0,2.000883579E0
3.996272985E0,5.503243446E0,-2.635443687E0,2.522251606E0
4.001269860E0,5.267056465E0,-2.486172676E0,3.066448212E0
4.006266735E0,4.951313972E0,-2.347706795E0,3.644439220E0
4.011263610E0,4.699856758E0,-2.365747452E0,4.126049995E0
4.016260485E0,4.579889774E0,-2.542370796E0,4.484484196E0
4.021257360E0,4.505211830E0,-2.719321251E0,4.802941322E0
4.026254235E0,4.499775887E0,-3.016105652E0,5.025839806E0
4.031251110E0,4.679837227E0,-3.398684502E0,5.269186020E0
4.036247985E0,4.887114525E0,-3.792814255E0,5.465821743E0
4.041244860E0,4.869536877E0,-4.033497810E0,5.216557980E0
4.046241735E0,4.860600471E0,-4.243253708E0,4.693072796E0
4.051238610E0,4.738315582E0,-4.482210159E0,4.183300972E0
4.056235485E0,4.514884472E0,-4.803236961E0,3.754608631E0
4.061232360E0,4.313062191E0,-5.125064850E0,3.672203302E0
4.066229235E0,3.875437260E0,-5.455192566E0,3.823418617E0
4.071226110E0,3.274859905E0,-5.585872650E0,3.902513266E0
4.076222985E0,2.520507812E0,-5.527192116E0,4.191803932E0
4.081219860E0,1.375125408E0,-5.339531898E0,4.483312130E0
4.086216735E0,3.217816055E-1,-5.102056503E0,4.699669361E0
4.091213610E0,-7.173581123E-1,-4.855548859E0,4.914458275E0
4.096210485E0,-1.568721056E0,-4.492331505E0,4.745975494E0
4.101207360E0,-1.982990265E0,-4.000551224E0,4.597507477E0
4.106204235E0,-1.948123813E0,-3.581469536E0,4.293488503E0
4.111201110E0,-1.675135970E0,-3.237726212E0,3.415843725E0
4.116198298E0,-1.077664971E0,-2.928990364E0,1.948095322E0
4.121196527E0,-1.359701157E-3,-2.751307487E0,8.576929569E-3
4.126193975E0,7.999963760E-1,-2.604261398E0,-1.684979200E0
4.131191006E0,1.540755510E0,-2.672138214E0,-2.718253613E0
4.136187881E0,1.591178298E0,-2.689249039E0,-3.338063478E0
4.141184756E0,1.115796328E0,-2.576825142E0,-3.802017689E0
4.146181631E0,1.114725947E0,-2.830277443E0,-4.456305981E0
4.151178506E0,9.793879390E-1,-3.331877708E0,-4.860311985E0
4.156175381E0,4.688576758E-1,-3.930562019E0,-4.956986904E0
4.161172256E0,-3.346998096E-1,-4.329515457E0,-4.940763950E0
4.166169131E0,-1.424905658E0,-4.529006958E0,-4.496895790E0
4.171166006E0,-2.417889595E0,-4.773341179E0,-3.903495073E0
4.176162881E0,-3.269903898E0,-4.921295166E0,-3.538229465E0
4.181159756E0,-3.930545330E0,-4.747992516E0,-3.236866474E0
4.186156631E0,-4.315039635E0,-4.488261223E0,-2.707602262E0
4.191153506E0,-4.560008526E0,-4.285739899E0,-1.883886814E0
4.196150381E0,-4.720439911E0,-4.180972099E0,-1.127031207E0
4.201147256E0,-4.570372105E0,-3.991980553E0,-5.829272270E-1
4.206144131E0,-4.455534935E0,-3.852815628E0,-2.273582220E-1
4.211141006E0,-4.276402950E0,-3.744421005E0,1.828329563E-1
4.216137881E0,-4.101719856E0,-3.628673553E0,7.470349073E-1
4.221134756E0,-3.810606003E0,-3.414882660E0,9.235560894E-1
4.226131631E0,-3.231968880E0,-3.060050011E0,8.284869194E-1
4.231128506E0,-3.345718384E0,-2.786576271E0,2.353835106E-2
4.236125381E0,-3.966780663E0,-2.455307961E0,-7.858626842E-1
4.241122256E0,-3.871695757E0,-2.073146820E0,-1.639271975E0
4.246119131E0,-3.441533089E0,-1.740067482E0,-2.963160276E0
4.251116006E0,-3.030353546E0,-1.324153900E0,-3.916914940E0
4.256112881E0,-2.772578955E0,-1.155240059E0,-4.720333099E0
4.261109756E0,-2.955369711E0,-1.090893745E0,-5.933349609E0
4.266106631E0,-2.951297045E0,-7.429141998E-1,-6.930424690E0
4.271103506E0,-2.156371355E0,-5.560150146E-1,-7.708383560E0
4.276100381E0,-1.491692901E0,-1.228904724E-2,-8.952293396E0
4.281097256E0,-1.227559686E0,5.646667480E-1,-1.155547619E1
4.286094131E0,-7.236323357E-1,4.367895126E-1,-1.592250633E1
4.291091006E0,1.761646628E0,4.446830750E-1,-1.403452778E1
4.296087881E0,2.154829264E0,1.338891029E0,-9.896430016E0
4.301084756E0,3.155889273E0,2.245106697E0,-6.063519001E0
4.306081631E0,3.481647253E0,2.948682308E0,-3.222087860E0
4.311078506E0,3.566130877E0,3.580740929E0,-1.391747594E0
4.316075381E0,3.594307184E0,3.909185886E0,-4.035248756E-1
4.321072256E0,2.614528894E0,4.234113693E0,-7.539763451E-1
4.326069131E0,1.937544823E0,4.111537933E0,-2.273180485E0
4.331066006E0,2.054122210E0,3.901968002E0,-3.731703043E0
4.336062881E0,2.488481998E0,3.640069962E0,-4.732162952E0
4.341059756E0,2.446766615E0,3.372242928E0,-5.395121574E0
4.346056631E0,2.218833685E0,3.271452427E0,-6.159750938E0
4.351053506E0,2.035667896E0,3.330150604E0,-6.775365829E0
4.356050381E0,1.631988764E0,3.528480530E0,-6.540197372E0
4.361047256E0,1.029422760E0,3.933107853E0,-6.022802830E0
4.366044652E0,5.261870623E-1,4.410154343E0,-6.208492279E0
4.371043402E0,-2.690851092E-1,4.856990814E0,-6.332523823E0
4.376041214E0,-6.441247463E-1,5.269499779E0,-6.671199799E0
4.381038089E0,-9.052964449E-1,5.614645481E0,-7.115798473E0
4.386034964E0,-1.156809092E0,5.926254272E0,-7.326064110E0
4.391031839E0,-9.946747422E-1,6.020549297E0,-7.253723621E0
4.396028714E0,-1.437128186E0,6.569740295E0,-6.907141685E0
4.401025589E0,-2.250804186E0,7.049039364E0,-6.469087601E0
4.406022464E0,-2.443258762E0,7.171343803E0,-6.140882492E0
4.411019339E0,-2.580291748E0,7.329669952E0,-5.864520073E0
4.416016214E0,-2.598124504E0,7.485857964E0,-5.579750538E0
4.421013089E0,-2.525969982E0,7.551482201E0,-5.420310020E0
4.426009964E0,-2.431209564E0,7.522107124E0,-5.332777977E0
4.431006839E0,-2.399712563E0,7.431347847E0,-5.156591892E0
4.436003714E0,-2.311852694E0,7.262462616E0,-4.949221134E0
4.441000589E0,-2.090968609E0,6.974706650E0,-4.639039516E0
4.445997464E0,-1.818368316E0,6.582182884E0,-4.257889748E0
4.450994339E0,-1.589474678E0,6.084711075E0,-3.820594549E0
4.455991214E0,-1.334681273E0,5.525003433E0,-3.261046886E0
4.460988089E0,-1.125841618E0,4.902695656E0,-2.561043739E0
4.465984964E0,-8.427070379E-1,4.255615711E0,-1.659561872E0
4.470981839E0,-4.977774322E-1,3.530407906E0,-4.438102245E-1
4.475978714E0,7.353615761E-2,2.664263725E0,1.091140985E0
4.480975589E0,5.687580705E-1,1.728290558E0,2.863438368E0
4.485972464E0,1.075176835E0,6.761932373E-1,5.077867508E0
4.490969339E0,1.843326688E0,-4.258909225E-1,7.582070351E0
4.495966214E0,2.676055670E0,-1.511801720E0,1.029579353E1
4.500963089E0,2.673196793E0,-2.763980865E0,1.281201363E1
4.505959964E0,2.838983536E0,-4.509976387E0,1.433160305E1
4.510956839E0,2.812994957E0,-6.521149635E0,1.471924019E1
4.515953714E0,3.110722780E0,-8.841773033E0,1.407474327E1
4.520950589E0,3.231947899E0,-1.101593590E1,1.317517090E1
4.525947464E0,3.361319780E0,-1.283966255E1,1.220518684E1
4.530944339E0,2.768468618E0,-1.397548771E1,1.134840393E1
4.535941214E0,2.202849865E0,-1.428774834E1,1.044489861E1
4.540938089E0,1.721339226E0,-1.352167225E1,9.460759163E0
4.545934964E0,1.490954757E0,-1.166677856E1,8.391030312E0
4.550931839E0,1.454381227E0,-9.124145508E0,7.441281319E0
4.555928714E0,1.252815604E0,-6.722239494E0,6.636010170E0
4.560925589E0,6.061941981E-1,-4.668712616E0,5.729654789E0
4.565922464E0,-8.892440051E-2,-3.003293991E0,4.783572197E0
4.570919339E0,-6.111853719E-1,-1.641330719E0,3.798917770E0
4.575916214E0,-1.009840488E0,-5.435829163E-1,2.571392298E0
4.580913089E0,-1.528230429E0,2.785882950E-1,1.558790207E0
4.585909964E0,-1.872084856E0,7.636241913E-1,7.375326157E-1
4.590906839E0,-2.362100601E0,1.067605019E0,6.932210922E-2
4.595903714E0,-2.981400490E0,1.243655205E0,-3.976376057E-1
4.600900589E0,-3.707831383E0,1.474061966E0,-7.777979374E-1
4.605897464E0,-4.493706226E0,1.651360512E0,-9.629993439E-1
4.610894339E0,-5.083777905E0,1.608248711E0,-9.819376469E-1
4.615891943E0,-5.443646908E0,1.371307850E0,-1.028601646E0
4.620890902E0,-5.767261982E0,9.531116486E-1,-1.396257401E0
4.625888662E0,-6.305857658E0,2.846374512E-1,-2.005110741E0
4.630885693E0,-6.486458778E0,-5.906286240E-1,-2.481168747E0
4.635882568E0,-5.480637550E0,-1.272459984E0,-3.313718557E0
4.640879443E0,-4.810138226E0,-2.376274109E0,-4.057811737E0
4.645876318E0,-4.780633926E0,-3.472863197E0,-3.196844578E0
4.650873193E0,-5.036081791E0,-4.863937378E0,-9.743297100E-1
4.655870068E0,-4.858678818E0,-6.252446175E0,1.180108786E0
4.660866943E0,-4.564525127E0,-7.291286469E0,3.016027689E0
4.665863818E0,-4.245355129E0,-7.702015877E0,4.451698780E0
4.670860693E0,-3.986209393E0,-7.264586449E0,4.626028061E0
4.675857568E0,-4.185602188E0,-6.120833397E0,2.675308704E0
4.680854443E0,-3.830368280E0,-4.438629150E0,-4.638559818E-1
4.685851318E0,-3.593320370E0,-2.845359802E0,-2.412220001E0
4.690848193E0,-3.415480852E0,-1.417852402E0,-4.077529430E0
4.695845068E0,-3.825369835E0,-1.474676132E-1,-5.858958244E0
4.700841943E0,-3.865342140E0,1.325125694E0,-7.781998634E0
4.705838818E0,-3.753573895E0,3.023033619E0,-9.445878983E0
4.710835693E0,-3.943386316E0,4.755809784E0,-1.101411057E1
4.715832568E0,-3.908789396E0,6.052597523E0,-1.146768951E1
4.720829443E0,-3.411415339E0,6.424536705E0,-1.056978416E1
4.725826318E0,-3.048934698E0,6.298742294E0,-9.316909790E0
4.730823193E0,-2.889135361E0,6.002096176E0,-8.656707764E0
4.735820068E0,-3.543757677E0,5.688343048E0,-7.790673733E0
4.740816943E0,-4.189107895E0,5.209518433E0,-6.356860161E0
4.745813818E0,-4.808002472E0,5.027506828E0,-5.458846092E0
4.750810693E0,-5.238316536E0,4.775303841E0,-4.563589573E0
4.755807568E0,-4.897148609E0,4.626867294E0,-3.818894386E0
4.760804443E0,-4.318225861E0,4.261091709E0,-3.579518557E0
4.765801318E0,-3.417155981E0,3.706599236E0,-3.903335333E0
4.770798193E0,-2.689798832E0,3.137906075E0,-4.020585537E0
4.775795068E0,-2.248478413E0,2.468565464E0,-4.009414673E0
4.780791943E0,-1.514630437E0,1.425802231E0,-4.468749046E0
4.785788818E0,-4.684975743E-1,1.295299530E-1,-5.365129948E0
4.790785693E0,8.083860874E-1,-8.581743240E-1,-6.211709976E0
4.795782568E0,2.153342962E0,-1.624411583E0,-6.979836941E0
4.800779443E0,3.352845669E0,-2.248616219E0,-7.402506828E0
4.805776318E0,4.419386864E0,-2.969965935E0,-7.407228470E0
4.810773193E0,5.454897881E0,-3.749300957E0,-7.153761864E0
4.815770068E0,6.816169262E0,-4.944473267E0,-7.107181549E0
4.820766943E0,8.013897896E0,-6.111413956E0,-6.748633385E0
4.825763818E0,9.023185730E0,-7.019730568E0,-6.113446712E0
4.830760693E0,1.015848160E1,-7.659480095E0,-5.519352913E0
4.835757568E0,1.083549595E1,-7.918366432E0,-4.780848980E0
4.840754443E0,1.122990131E1,-7.557611465E0,-3.940045357E0
4.845751318E0,1.122991276E1,-6.530513763E0,-3.432016134E0
4.850748193E0,1.050785732E1,-5.058897018E0,-2.485175610E0
4.855745068E0,9.167467117E0,-3.278388977E0,-1.270864129E0
4.860741943E0,7.570255756E0,-1.778930664E0,8.667945862E-2
4.865739860E0,5.971759796E0,-7.810087204E-1,1.243344426E0
4.870739339E0,4.505271435E0,2.657794952E-2,2.269659519E0
4.875736214E0,3.074033260E0,6.558303833E-1,3.252622843E0
4.880733089E0,1.969223976E0,1.119040489E0,4.055920601E0
4.885729964E0,8.288618326E-1,1.519549370E0,4.690175533E0
4.890726839E0,-2.020925879E-1,2.042014599E0,5.126000404E0
4.895723714E0,-1.291798353E0,2.385226250E0,5.106524467E0
4.900720589E0,-2.141993523E0,2.544952393E0,4.184903145E0
4.905717464E0,-3.109610319E0,3.036085129E0,3.122601271E0
4.910714339E0,-3.641112328E0,3.628807545E0,3.612225294E0
4.915711214E0,-3.806285858E0,3.469148159E0,3.634714127E0
4.920708089E0,-4.546887398E0,3.053551674E0,3.831785440E0
4.925704964E0,-4.519401073E0,2.784439087E0,3.367346048E0
4.930701839E0,-4.427606583E0,2.886606216E0,2.456944942E0
4.935698714E0,-4.319909573E0,2.665817738E0,1.865138888E0
4.940695589E0,-3.696506739E0,2.311457157E0,1.530361533E0
4.945692464E0,-3.130397081E0,1.744635582E0,9.812164307E-1
4.950689339E0,-2.874393940E0,1.166460991E0,3.645277023E-2
4.955686214E0,-2.596340895E0,4.356498718E-1,-4.212219715E-1
4.960683089E0,-2.160799026E0,7.852458954E-2,-8.540417552E-1
4.965679964E0,-1.831507206E0,8.487033844E-2,-1.126727581E0
4.970676839E0,-1.610786915E0,1.392936707E-2,-8.474218845E-1
4.975673714E0,-1.295342207E0,7.868671417E-2,-3.981144428E-1
4.980670589E0,-1.019278407E0,3.388023376E-1,1.334394813E-1
4.985667464E0,-6.658518314E-1,7.749996185E-1,7.044581175E-1
4.990664339E0,-4.579070807E-1,1.176710129E0,1.439420462E0
4.995661214E0,-3.733814657E-1,1.634981155E0,1.837338090E0
5.000658089E0,-3.903294206E-1,2.025420666E0,1.898002625E0
5.005654964E0,-4.646348953E-1,2.187859535E0,1.875228047E0
5.010651839E0,-6.057243347E-1,2.108209133E0,1.759814739E0
5.015648714E0,-6.722791195E-1,1.973338604E0,1.616882801E0
5.020645589E0,-7.004646659E-1,1.811985493E0,1.585524321E0
5.025642464E0,-6.144000292E-1,1.593098640E0,1.660725832E0
5.030639339E0,-4.416214824E-1,1.309624672E0,1.842163324E0
5.035636214E0,-2.878880203E-1,1.014286041E0,2.031735182E0
5.040633089E0,-2.032366693E-1,7.477979660E-1,2.107315540E0
5.045629964E0,-7.968515158E-2,4.408206940E-1,2.173885584E0
5.050626839E0,5.444326997E-2,2.417984009E-1,2.195229769E0
5.055623714E0,2.663119435E-1,1.698684692E-1,2.252035856E0
5.060620589E0,5.845149755E-1,1.052455902E-1,2.255891562E0
5.065617464E0,9.349532127E-1,1.842756271E-1,2.135226965E0
5.070614339E0,1.417556763E0,2.201175690E-1,2.010270834E0
5.075611214E0,1.940774322E0,2.462463379E-1,1.833786964E0
5.080608089E0,2.475637197E0,1.811904907E-1,1.606685758E0
5.085604964E0,2.916608334E0,-2.286624908E-2,1.389353156E0
5.090601839E0,3.402155161E0,-3.539199829E-1,1.173001766E0
5.095598714E0,3.945773602E0,-8.333444595E-1,1.032105684E0
5.100595589E0,4.460675716E0,-1.396401405E0,9.526714087E-1
5.105592464E0,4.929582596E0,-1.995041847E0,9.870454073E-1
5.110589339E0,5.370795250E0,-2.564449310E0,1.151466012E0
5.115587568E0,5.676478386E0,-2.994384766E0,1.375593662E0
5.120589964E0,5.878127575E0,-3.241771698E0,1.668141723E0
5.125582673E0,5.989884853E0,-3.289752960E0,2.049403191E0
5.130575433E0,6.069589138E0,-3.212531090E0,2.456242085E0
5.135568454E0,6.150255203E0,-3.117647171E0,2.789787054E0
5.140561787E0,6.251005173E0,-3.071955681E0,3.088001966E0
5.145555641E0,6.307196140E0,-3.075325966E0,3.288632393E0
5.150550068E0,6.242851257E0,-3.046390533E0,3.320125103E0
5.155545277E0,6.173029423E0,-3.116938591E0,3.322186708E0
5.160541266E0,5.895401478E0,-3.160353661E0,3.228771687E0
5.165538037E0,5.289112091E0,-3.081383705E0,3.024576187E0
5.170535589E0,4.626135826E0,-2.978613853E0,2.801538944E0
5.175533870E0,4.174088001E0,-2.936000824E0,2.742421865E0
5.180532673E0,3.700656414E0,-2.869629860E0,2.901621342E0
5.185531995E0,3.150135040E0,-2.784018517E0,3.392791748E0
5.190531787E0,2.742326498E0,-2.750405312E0,4.266131401E0
5.195531839E0,2.326798677E0,-2.792015076E0,5.296036243E0
5.200532100E0,1.906284332E0,-2.683300018E0,6.293412209E0
5.205532308E0,1.850779295E0,-2.730312347E0,6.714013100E0
5.210531735E0,2.278596640E0,-3.052244186E0,6.560171127E0
5.215528818E0,3.049175978E0,-3.636826515E0,6.122367859E0
5.220525693E0,4.022032261E0,-4.369026184E0,5.573779106E0
5.225522568E0,4.708653450E0,-5.002635956E0,5.006628513E0
5.230519443E0,4.681865215E0,-5.105232239E0,4.434120655E0
5.235516318E0,4.292182922E0,-5.113177299E0,4.153358936E0
5.240513193E0,3.951898575E0,-5.182332039E0,3.915450096E0
5.245510068E0,3.371941328E0,-5.140511513E0,3.820667744E0
5.250506943E0,2.732087612E0,-4.963995934E0,3.854022026E0
5.255503818E0,2.153987885E0,-4.732024193E0,3.933829784E0
5.260500693E0,1.867185831E0,-4.552541733E0,4.060119629E0
5.265497568E0,1.453199625E0,-4.442391396E0,4.024194717E0
5.270494443E0,1.403599620E0,-4.552136421E0,4.776301384E0
5.275491318E0,9.877902269E-1,-4.398612022E0,5.269351482E0
5.280488193E0,-4.514529407E-1,-3.673804283E0,5.562279224E0
5.285485068E0,-1.062850714E0,-3.196907043E0,5.796055794E0
5.290481943E0,-4.861449301E-1,-2.912865639E0,5.580697060E0
5.295478818E0,4.419189095E-1,-2.884160995E0,4.683981419E0
5.300475693E0,1.110944986E0,-2.799993515E0,3.013714790E0
5.305472568E0,1.510038733E0,-2.715934753E0,8.738046885E-1
5.310469443E0,1.622070074E0,-2.615452766E0,-1.227319479E0
5.315466318E0,1.442003608E0,-2.386120796E0,-2.833345413E0
5.320463193E0,1.330303907E0,-2.233770370E0,-3.871767044E0
5.325460068E0,7.537682652E-1,-2.162929535E0,-4.612825394E0
5.330456943E0,5.827938393E-2,-2.328814507E0,-4.994667053E0
5.335453818E0,-7.507743239E-1,-2.927145958E0,-5.130914688E0
5.340450693E0,-1.493745923E0,-3.813704491E0,-5.137275696E0
5.345447568E0,-2.246863604E0,-4.732040405E0,-5.158070564E0
5.350444443E0,-3.195247650E0,-5.339988708E0,-5.111330509E0
5.355441318E0,-4.127095699E0,-5.728947639E0,-4.257306099E0
5.360438193E0,-4.707719803E0,-5.770138741E0,-3.313380480E0
5.365436110E0,-5.034131050E0,-5.595679283E0,-2.513992071E0
5.370440068E0,-5.300602913E0,-5.320631981E0,-1.943869829E0
5.375429964E0,-5.470939159E0,-4.820538521E0,-1.381024837E0
5.380420173E0,-5.397757530E0,-4.155696869E0,-3.841992617E-1
5.385410902E0,-4.752629280E0,-3.754482269E0,3.844127655E-1
5.390402204E0,-4.531561375E0,-3.599573135E0,2.518296242E-1
5.395394339E0,-4.749805927E0,-3.415455818E0,3.555239439E-1
5.400387516E0,-4.817611694E0,-3.177955627E0,3.182072639E-1
5.405381787E0,-5.016788483E0,-2.824398041E0,-1.882543564E-1
5.410377360E0,-5.013170242E0,-2.486013412E0,-8.173344135E-1
5.415374235E0,-4.624483585E0,-2.019021034E0,-1.377402425E0
5.420372360E0,-4.096051216E0,-1.619706154E0,-1.876276255E0
5.425371527E0,-3.401256800E0,-1.244790077E0,-2.474602699E0
5.430371683E0,-3.053190470E0,-8.651647568E-1,-3.446862698E0
5.435372568E0,-3.011997938E0,-6.573972702E-1,-4.727336407E0
5.440373975E0,-2.670896530E0,-3.905420303E-1,-7.384981632E0
5.445375850E0,-1.018328667E0,-3.462352753E-1,-1.033728695E1
5.450377933E0,1.249895096E-1,-1.331682205E-1,-1.194727516E1
5.455379704E0,1.185661554E0,2.265138626E-1,-1.306300354E1
5.460379495E0,1.393296242E0,6.333541870E-1,-1.101189232E1
5.465376370E0,1.632290244E0,1.246414185E0,-8.574501991E0
5.470373245E0,1.989922523E0,1.858570576E0,-6.520316601E0
5.475370120E0,3.066976309E0,2.248964787E0,-4.836645603E0
5.480366995E0,3.557229757E0,2.735597610E0,-3.629655600E0
5.485363870E0,3.926820040E0,2.870219231E0,-3.175786018E0
5.490360745E0,3.704871416E0,2.951857567E0,-1.697652817E0
5.495357620E0,2.781216383E0,3.231917858E0,-2.002359390E0
5.500354495E0,1.895489335E0,3.569752216E0,-2.530132532E0
5.505351370E0,1.923808455E0,3.526198864E0,-3.425737143E0
5.510348245E0,1.977885127E0,3.169225693E0,-4.165873528E0
5.515345120E0,1.653780103E0,3.078958511E0,-4.863754272E0
5.520341995E0,1.495568871E0,3.063937664E0,-5.562018871E0
5.525338870E0,1.285968781E0,3.248240948E0,-6.235157967E0
5.530335745E0,1.123763800E0,3.284030437E0,-5.875395775E0
5.535332620E0,8.666799068E-1,3.384348869E0,-5.582327843E0
5.540329495E0,3.118492365E-1,3.690457344E0,-5.592329979E0
5.545326370E0,-3.665148020E-1,4.128543854E0,-5.858266830E0
5.550323245E0,-5.111922622E-1,4.533985615E0,-6.787667274E0
5.555320120E0,-8.247401714E-1,4.960098743E0,-7.227553368E0
5.560316995E0,-1.144816756E0,5.428793907E0,-7.247128010E0
5.565313870E0,-1.436149478E0,5.913772106E0,-7.059798241E0
5.570310745E0,-1.644356251E0,6.372076988E0,-6.816355705E0
5.575307620E0,-1.924956799E0,6.789413452E0,-6.617383957E0
5.580304495E0,-2.335268974E0,7.108475685E0,-6.326370716E0
5.585301370E0,-2.674369812E0,7.410768986E0,-5.993609428E0
5.590298245E0,-2.744488001E0,7.694035530E0,-5.779183865E0
5.595295120E0,-2.637893915E0,7.769579887E0,-5.622469425E0
5.600291995E0,-2.584807396E0,7.826788902E0,-5.451288700E0
5.605288870E0,-2.621122599E0,7.858699322E0,-5.217286110E0
5.610285745E0,-2.548085928E0,7.824591637E0,-4.937295437E0
5.615282673E0,-2.315368891E0,7.698018074E0,-4.633163452E0
5.620279808E0,-1.928210735E0,7.469273567E0,-4.226284504E0
5.625276943E0,-1.422688484E0,7.104664803E0,-3.767487049E0
5.630274079E0,-1.073684931E0,6.556051731E0,-3.267164230E0
5.635271214E0,-6.993583441E-1,5.909157276E0,-2.525635242E0
5.640268350E0,-1.882122606E-1,5.141971588E0,-1.604286432E0
5.645265485E0,3.544192314E-1,4.285248756E0,-6.001150608E-1
5.650262620E0,7.373495102E-1,3.398423672E0,5.382692814E-1
5.655259756E0,1.116217256E0,2.483316898E0,1.895235538E0
5.660256891E0,1.781454086E0,1.498664379E0,3.454252005E0
5.665254027E0,2.340889692E0,4.315118790E-1,5.419983387E0
5.670251162E0,2.639400959E0,-8.772039413E-1,8.319030762E0
5.675248298E0,2.968282700E0,-2.445203781E0,1.160993958E1
5.680245329E0,3.042433023E0,-4.285385132E0,1.523051643E1
5.685242204E0,3.330426693E0,-6.651319504E0,1.824601555E1
5.690239079E0,3.761791706E0,-9.428866386E0,1.912189674E1
5.695235954E0,4.473223209E0,-1.230449295E1,1.754877472E1
5.700232829E0,4.819804668E0,-1.483850002E1,1.478872204E1
5.705229704E0,4.148550034E0,-1.640110397E1,1.219559383E1
5.710226579E0,3.127370358E0,-1.662969971E1,1.008789921E1
5.715223454E0,2.385535002E0,-1.547593689E1,8.459620476E0
5.720220329E0,2.285031080E0,-1.326477909E1,7.022330284E0
5.725217204E0,2.633471251E0,-1.016978455E1,5.694602489E0
5.730214079E0,2.428074121E0,-6.833080292E0,4.622877121E0
5.735210954E0,1.518932581E0,-3.711273193E0,3.636466742E0
5.740207829E0,4.644047022E-1,-1.140645027E0,2.517215967E0
5.745204704E0,-3.989212811E-1,8.445940018E-1,1.502144337E0
5.750201579E0,-1.172410727E0,2.212143421E0,6.949343681E-1
5.755198454E0,-2.132971287E0,2.972768307E0,-2.586436272E-2
5.760195329E0,-3.138984442E0,3.173181057E0,-8.602890968E-1
5.765192204E0,-4.246877670E0,2.955361366E0,-1.532938957E0
5.770189079E0,-5.553744793E0,2.355576038E0,-1.853100419E0
5.775185954E0,-6.690622330E0,1.491135597E0,-2.006449461E0
5.780182829E0,-7.020878315E0,6.064090729E-1,-2.270545959E0
5.785179704E0,-7.267722130E0,-2.289047241E-1,-3.022298336E0
5.790176579E0,-7.636201382E0,-1.283317566E0,-3.527588606E0
5.795173454E0,-7.435715199E0,-2.448043823E0,-3.022485971E0
5.800170329E0,-6.865200043E0,-3.758638382E0,-1.435017347E0
5.805167204E0,-6.507470608E0,-5.339106560E0,9.595708847E-1
5.810164079E0,-6.603489399E0,-7.183827400E0,3.358193636E0
5.815160954E0,-6.967467308E0,-8.786126137E0,5.181844711E0
5.820157829E0,-6.836238861E0,-9.545431137E0,4.664453506E0
5.825154704E0,-6.388496399E0,-8.967591286E0,1.834683895E0
5.830151579E0,-5.695012569E0,-7.209927559E0,-2.375068665E0
5.835148454E0,-4.938238621E0,-4.709850311E0,-4.548931599E0
5.840145329E0,-4.006825924E0,-2.064513206E0,-5.060346603E0
5.845142204E0,-2.937550783E0,7.443714142E-2,-4.938437462E0
5.850139079E0,-2.404055119E0,1.755866528E0,-5.262171745E0
5.855135954E0,-3.031080961E0,3.202129841E0,-6.743413925E0
5.860132829E0,-3.161980152E0,4.790104866E0,-8.365042686E0
5.865129704E0,-3.372574806E0,6.282887459E0,-1.061692142E1
5.870126891E0,-3.857199430E0,6.859622955E0,-1.193435001E1
5.875124548E0,-4.066294670E0,6.822543621E0,-1.131686783E1
5.880122204E0,-4.362137794E0,6.462388515E0,-1.018189240E1
5.885119860E0,-4.555393219E0,5.971884251E0,-9.362469673E0
5.890117360E0,-4.952445507E0,5.352522373E0,-8.440513611E0
5.895114235E0,-5.304948330E0,4.709283352E0,-7.026678562E0
5.900111110E0,-5.427949905E0,4.414359570E0,-5.511075020E0
5.905107985E0,-5.431764126E0,4.324466228E0,-4.641927719E0
5.910104860E0,-5.612769127E0,4.124525547E0,-3.879073143E0
5.915101735E0,-5.210993767E0,3.734296799E0,-3.573677778E0
5.920098610E0,-4.647736549E0,2.937673569E0,-3.396377563E0
5.925095485E0,-4.088742733E0,1.936123371E0,-3.886058807E0
5.930092360E0,-3.230349779E0,7.353487015E-1,-4.781812668E0
5.935089235E0,-1.923480153E0,-4.482584000E-1,-6.329345703E0
5.940086110E0,-8.043230772E-1,-1.238779068E0,-7.784934998E0
5.945082985E0,1.123752668E-1,-1.734999657E0,-8.850091934E0
5.950079860E0,9.310712814E-1,-2.169673920E0,-9.291570663E0
5.955076735E0,1.741617441E0,-2.528668404E0,-9.076500893E0
5.960073610E0,2.317941427E0,-2.775818825E0,-8.464023590E0
5.965070485E0,3.812167406E0,-3.795672417E0,-8.414450645E0
5.970067360E0,5.756036758E0,-5.220597267E0,-8.095922470E0
5.975064235E0,7.788009644E0,-6.535416603E0,-7.096120358E0
5.980061110E0,9.568813324E0,-7.797380447E0,-6.120592117E0
5.985057985E0,1.098415184E1,-8.515848160E0,-5.109029293E0
5.990054860E0,1.227112389E1,-8.978499413E0,-4.161776066E0
5.995051735E0,1.313640594E1,-8.723932266E0,-3.362247467E0
6.000048610E0,1.359077454E1,-7.760440826E0,-2.521666527E0
6.005045485E0,1.356985378E1,-6.072685242E0,-1.428397655E0
6.010042360E0,1.237348461E1,-3.858707428E0,-5.213177204E-2
6.015039235E0,1.007531357E1,-1.639307976E0,1.286724448E0
6.020036110E0,8.101449966E0,-3.840761185E-1,2.777693987E0
6.025032985E0,6.338660240E0,5.852222443E-2,3.985911846E0
6.030029860E0,4.192274094E0,7.850332260E-1,5.077739716E0
6.035026735E0,2.306070805E0,1.390910149E0,5.976509094E0
6.040023610E0,1.222895145E0,1.584793091E0,6.341156483E0
6.045020485E0,5.436320305E-1,1.647506714E0,6.156301498E0
6.050017360E0,-2.925208509E-1,2.093901634E0,5.679047108E0
6.055014235E0,-1.295456648E0,2.478785992E0,5.159292698E0
6.060011110E0,-2.123708725E0,2.620679855E0,4.618152142E0
6.065007985E0,-2.614781857E0,2.728269100E0,3.973904848E0
6.070004860E0,-2.895466089E0,2.500322819E0,3.329126596E0
6.075001735E0,-2.832823515E0,2.159849167E0,2.664626837E0
6.079998610E0,-3.186815023E0,1.979763508E0,1.606852651E0
6.084995485E0,-3.839669704E0,1.813951492E0,9.232819080E-1
6.089992360E0,-4.480608940E0,1.535614967E0,2.205446661E-1
6.094989235E0,-4.792786598E0,1.338675499E0,-7.222306132E-1
6.099986110E0,-4.639516354E0,1.522064209E0,-1.261023045E0
6.104982985E0,-4.343260288E0,1.561306953E0,-1.468189240E0
6.109979860E0,-4.125042915E0,1.394319534E0,-1.647848725E0
6.114977100E0,-3.963012934E0,1.239040375E0,-1.642523289E0
6.119976058E0,-3.708301544E0,1.057117462E0,-1.624599695E0
6.124974183E0,-3.490388155E0,1.104531288E0,-1.635129690E0
6.129971058E0,-3.235632658E0,1.134511948E0,-1.363163233E0
6.134967933E0,-2.999615192E0,1.204392433E0,-1.052602410E0
6.139964808E0,-2.641925097E0,1.416905403E0,-7.296721339E-1
6.144961683E0,-2.416003466E0,1.755045891E0,-2.556690574E-1
6.149958558E0,-2.328605890E0,1.974569321E0,2.301089764E-1
6.154955433E0,-2.103910923E0,1.987199306E0,8.886269331E-1
6.159952308E0,-2.026272535E0,1.826852322E0,1.808791399E0
6.164949183E0,-1.939760447E0,1.785846710E0,2.596059799E0
6.169946058E0,-1.639466405E0,1.828390598E0,3.186878204E0
6.174942933E0,-1.136025429E0,1.868481636E0,3.580381155E0
6.179939808E0,-7.743822932E-1,1.812952995E0,3.711873055E0
6.184936683E0,-4.944542050E-1,1.688299656E0,3.663151503E0
6.189933558E0,-2.342371047E-1,1.607002258E0,3.353875637E0
6.194930433E0,1.185272336E-1,1.487585068E0,2.919140339E0
6.199927308E0,5.368013382E-1,1.282156944E0,2.570482969E0
6.204924183E0,9.597915411E-1,1.131943703E0,2.255766153E0
6.209921058E0,1.401309133E0,9.890375137E-1,2.023048162E0
6.214917933E0,1.836844921E0,8.558292389E-1,1.846202016E0
6.219914808E0,2.256221294E0,7.012853622E-1,1.772954583E0
6.224911683E0,2.649854660E0,5.708560944E-1,1.691142201E0
6.229908558E0,2.972501278E0,3.303556442E-1,1.443911910E0
6.234905433E0,3.224343777E0,6.831932068E-2,1.190051794E0
6.239902308E0,3.496159792E0,-1.914663315E-1,8.922634125E-1
6.244899183E0,3.773009539E0,-5.136556625E-1,6.635223627E-1
6.249896058E0,4.081041336E0,-8.958292007E-1,6.284586191E-1
6.254892933E0,4.250148296E0,-1.316330910E0,7.268526554E-1
6.259889808E0,4.457324028E0,-1.765416145E0,1.080055237E0
6.264886683E0,4.540062428E0,-2.137644768E0,1.548310280E0
6.269883558E0,4.472360611E0,-2.418629646E0,1.958651423E0
6.274880433E0,4.636891842E0,-2.689504623E0,2.312360525E0
6.279877308E0,4.722029209E0,-2.830392838E0,2.730702639E0
6.284874183E0,4.821170330E0,-2.915359497E0,3.047628880E0
6.289871058E0,4.846492290E0,-2.946735382E0,3.291346073E0
6.294867933E0,4.808205605E0,-2.993914604E0,3.425810099E0
6.299864808E0,4.955324650E0,-3.107222557E0,3.358380795E0
6.304861683E0,5.165227413E0,-3.298711777E0,3.075925827E0
6.309858558E0,5.260777473E0,-3.508723259E0,2.716155767E0
6.314855433E0,5.261104107E0,-3.579535484E0,2.363801479E0
6.319852308E0,5.188156128E0,-3.623832703E0,2.365898609E0
6.324849183E0,5.008706093E0,-3.567292213E0,2.596833706E0
6.329846058E0,4.811246395E0,-3.433618546E0,2.954641819E0
6.334842933E0,4.824672222E0,-3.425844193E0,3.402100086E0
6.339839808E0,4.832715988E0,-3.392511368E0,3.906242847E0
6.344836683E0,5.016134739E0,-3.582036018E0,4.241020679E0
6.349833558E0,5.552801132E0,-3.744949341E0,4.415390491E0
6.354830433E0,6.111136436E0,-3.921950340E0,4.372404575E0
6.359827308E0,6.633187294E0,-4.110880852E0,4.019932747E0
6.364824704E0,6.838472843E0,-4.113693237E0,3.534958839E0
6.369824704E0,6.688944817E0,-4.168088913E0,2.902883530E0
6.374821995E0,5.973499298E0,-4.087840080E0,2.462045670E0
6.379818870E0,5.222157955E0,-4.581418991E0,2.463371277E0
6.384815745E0,4.703262806E0,-5.267648697E0,2.752487421E0
6.389812620E0,3.948130369E0,-6.107859612E0,3.107773304E0
6.394809495E0,3.384371042E0,-7.106254578E0,3.687055111E0
6.399806370E0,2.760497332E0,-7.522975922E0,4.719531536E0
6.404803245E0,1.907382965E0,-7.468271255E0,5.962037086E0
6.409800120E0,1.056483984E0,-6.904137611E0,7.105797768E0
6.414796995E0,5.933321118E-1,-6.161399841E0,7.829379082E0
6.419793870E0,2.373197675E-1,-5.434341431E0,7.944132805E0
6.424790745E0,1.141956002E-1,-4.919499397E0,7.977212429E0
6.429787620E0,5.852958560E-2,-4.533363342E0,7.926488400E0
6.434784495E0,-3.524864912E-1,-3.922460556E0,7.386788368E0
6.439781370E0,-9.431100488E-1,-3.114150047E0,6.542228699E0
6.444778245E0,-1.360953927E0,-2.324645996E0,5.770262718E0
6.449775120E0,-1.604465246E0,-1.643050194E0,4.878766060E0
6.454771995E0,-1.421490908E0,-1.242017746E0,3.620986700E0
6.459768870E0,-1.202025771E0,-1.040315628E0,2.028639078E0
6.464765745E0,-5.237244964E-1,-1.193543434E0,-2.480447292E-3
6.469762620E0,-2.504444718E-1,-1.385545731E0,-2.029184341E0
6.474759495E0,-3.663676977E-1,-1.618579865E0,-3.886950254E0
6.479756370E0,-6.266447306E-1,-1.949787140E0,-5.302565575E0
6.484753245E0,-8.021388054E-1,-2.450572968E0,-6.172035694E0
6.489750120E0,-1.145531535E0,-3.113357544E0,-6.516309261E0
6.494746995E0,-1.840144992E0,-3.827776909E0,-6.660188198E0
6.499743870E0,-2.545015574E0,-4.163035393E0,-6.678223610E0
6.504740745E0,-3.310334921E0,-4.198479652E0,-6.532091618E0
6.509737620E0,-3.873035431E0,-4.128202438E0,-6.157271862E0
6.514734495E0,-4.383734703E0,-3.906791687E0,-5.472439766E0
6.519731370E0,-4.926157475E0,-3.498438835E0,-4.606694698E0
6.524728245E0,-5.423762321E0,-3.250164032E0,-3.657890558E0
6.529725120E0,-6.067797184E0,-3.204707146E0,-2.664117336E0
6.534721995E0,-6.434317589E0,-3.356983185E0,-1.527659655E0
6.539718870E0,-6.385019779E0,-3.273700714E0,-3.519729376E-1
6.544715745E0,-6.069894314E0,-3.062951088E0,8.642088175E-1
6.549712620E0,-5.507109642E0,-3.000093460E0,1.622831941E0
6.554709495E0,-5.257673740E0,-3.200014114E0,2.107439280E0
6.559706370E0,-4.822679996E0,-3.207873344E0,2.299093246E0
6.564703245E0,-4.469536781E0,-3.073967934E0,1.682307243E0
6.569700120E0,-4.037493706E0,-3.006433487E0,7.754569054E-1
6.574696995E0,-3.227833509E0,-2.988189697E0,-3.007428646E-1
6.579693870E0,-2.551539183E0,-2.810790062E0,-1.708041191E0
6.584690745E0,-2.235755205E0,-2.495617867E0,-3.301505804E0
6.589687620E0,-2.075933218E0,-2.183370590E0,-4.904518604E0
6.594684495E0,-1.928635597E0,-1.559955597E0,-6.235578537E0
6.599681370E0,-5.419719219E-1,-1.350654602E0,-8.048900604E0
6.604678245E0,1.624193907E0,-1.667873383E0,-1.247820377E1
6.609675120E0,3.395111084E0,-1.885041237E0,-1.266077042E1
6.614672568E0,2.727445602E0,-1.318161011E0,-1.127049160E1
6.619672777E0,2.559268951E0,-3.379249573E-2,-1.171722317E1
6.624669652E0,3.161560059E0,1.302253723E0,-9.988651276E0
6.629666527E0,3.673527956E0,2.160530090E0,-6.326258659E0
6.634663402E0,3.176730633E0,2.767071724E0,-2.562932014E0
6.639660277E0,2.397686720E0,3.167705536E0,-1.140600920E0
6.644657152E0,1.876756668E0,3.227199078E0,-1.433359981E0
6.649654027E0,1.842374325E0,2.999737263E0,-2.724967480E0
6.654650902E0,1.720809221E0,2.984640598E0,-3.553471327E0
6.659647777E0,2.068531990E0,2.687324524E0,-4.443485260E0
6.664644652E0,2.314786196E0,2.565894604E0,-5.204153538E0
6.669641527E0,2.494092941E0,2.546319962E0,-5.600637913E0
6.674638402E0,2.616704464E0,2.588092804E0,-5.881723404E0
6.679635277E0,2.067651749E0,3.033023357E0,-6.117634773E0
6.684632152E0,1.379197836E0,3.622366428E0,-6.262707233E0
6.689629027E0,7.501171827E-1,4.289205074E0,-6.787905693E0
6.694625902E0,1.629166603E-1,4.966491699E0,-7.245429993E0
6.699622777E0,-4.171477258E-2,5.460567951E0,-7.317076683E0
6.704619652E0,-9.069526196E-2,5.740319729E0,-7.305434227E0
6.709616527E0,-2.636830807E-1,6.186393738E0,-7.351888657E0
6.714613402E0,-7.246391773E-1,6.789195061E0,-6.948891640E0
6.719610277E0,-8.428828120E-1,7.194512844E0,-6.826669216E0
6.724607152E0,-7.120934725E-1,7.417408466E0,-6.706541061E0
6.729604027E0,-7.710514665E-1,7.614010334E0,-6.530364990E0
6.734600902E0,-1.220384955E0,7.923083305E0,-6.377295494E0
6.739597777E0,-1.363268018E0,8.112520218E0,-6.261460304E0
6.744594652E0,-1.458827257E0,8.187398911E0,-6.192111015E0
6.749591527E0,-1.395195007E0,8.184001923E0,-6.046652317E0
6.754588402E0,-1.309369206E0,8.272489548E0,-5.791234970E0
6.759585277E0,-1.230076671E0,8.349799156E0,-5.464326859E0
6.764582152E0,-1.040477037E0,8.411267281E0,-5.101547718E0
6.769579027E0,-8.409916162E-1,8.361168861E0,-4.674106121E0
6.774575068E0,-6.838741899E-1,8.127840996E0,-4.282317638E0
6.779567777E0,-4.538706243E-1,7.783047676E0,-3.864104986E0
6.784560745E0,-2.489536107E-1,7.379428864E0,-3.328474998E0
6.789554235E0,-1.176526845E-1,6.821155548E0,-2.692427397E0
6.794548245E0,1.191017330E-1,6.041141033E0,-1.879784703E0
6.799543037E0,1.815775931E-1,5.225762844E0,-7.957785130E-1
6.804538610E0,1.016060114E-1,4.235417366E0,6.388862133E-1
6.809534964E0,1.461338401E-1,3.054702282E0,2.648190975E0
6.814532100E0,1.143878698E-1,1.667860508E0,5.597843170E0
6.819530016E0,3.767572045E-1,-1.340770721E-2,9.541502953E0
6.824528714E0,1.289350748E0,-2.118435860E0,1.480108070E1
6.829527933E0,1.943617344E0,-4.438958168E0,2.054021072E1
6.834527673E0,1.969336152E0,-7.427186966E0,2.420391846E1
6.839527673E0,1.978094935E0,-1.109222412E1,2.383409882E1
6.844527933E0,1.859123468E0,-1.473387909E1,2.104084778E1
6.849528193E0,2.044533253E0,-1.771026230E1,1.736276436E1
6.854528454E0,1.543393135E0,-1.920587158E1,1.321576691E1
6.859526631E0,1.300058126E0,-1.915407372E1,8.948680878E0
6.864523766E0,1.742377996E0,-1.710966110E1,6.043915749E0
6.869530120E0,2.391943693E0,-1.321025848E1,4.563603401E0
6.874517620E0,3.098704338E0,-8.641011238E0,3.891367912E0
6.879505381E0,2.990890503E0,-4.515686989E0,4.001625061E0
6.884493662E0,2.152076960E0,-1.328834534E0,4.178922653E0
6.889482985E0,1.121962070E0,8.301906586E-1,3.752189636E0
6.894473610E0,-1.403339654E-1,2.022937775E0,2.967291832E0
6.899465537E0,-1.933983922E0,2.229348183E0,2.248524904E0
6.904459027E0,-4.221281528E0,1.599019051E0,1.686390638E0
6.909454079E0,-5.807077408E0,3.625144958E-1,9.450411797E-1
6.914450693E0,-6.440759659E0,-8.187704086E-1,3.172686100E-1
6.919448870E0,-6.990034103E0,-1.836735725E0,-4.230477810E-1
6.924448610E0,-7.918263912E0,-3.097361565E0,-1.593930244E0
6.929449652E0,-8.177508354E0,-4.600424767E0,-3.015524149E0
6.934451735E0,-8.747164726E0,-6.361857414E0,-2.768631220E0
6.939454600E0,-8.606172562E0,-8.255276680E0,-1.210150957E0
6.944457985E0,-8.112609863E0,-9.956081390E0,1.659376383E0
6.949461631E0,-6.235379696E0,-1.073396015E1,3.183717966E0
6.954465277E0,-5.336679935E0,-9.414962769E0,3.363552809E0
6.959465798E0,-4.029286385E0,-6.521038055E0,7.590987682E-1
6.964462933E0,-3.514507055E0,-3.034073830E0,-3.299499035E0
6.969459808E0,-3.192482948E0,-9.606361389E-3,-6.349536896E0
6.974456683E0,-3.418332815E0,1.906823158E0,-7.052391052E0
6.979453558E0,-3.353785276E0,2.953855515E0,-7.766279697E0
6.984450433E0,-3.885915756E0,3.861332893E0,-8.921100616E0
6.989447308E0,-4.416040421E0,5.018941879E0,-1.021103954E1
6.994444183E0,-4.456788063E0,6.420427322E0,-1.200928307E1
6.999441058E0,-4.934615135E0,7.489467144E0,-1.352247810E1
7.004437933E0,-4.973012924E0,7.782549858E0,-1.298581219E1
7.009434808E0,-4.565866470E0,7.685601234E0,-1.195488071E1
7.014431683E0,-4.810440540E0,6.974389076E0,-1.022376251E1
7.019428558E0,-5.055992603E0,6.078566551E0,-8.413489342E0
7.024425433E0,-5.027452946E0,5.429126740E0,-6.573679924E0
7.029422308E0,-5.277718067E0,5.039648533E0,-4.920375824E0
7.034419183E0,-4.652013779E0,4.990884304E0,-4.341072559E0
7.039416058E0,-4.880389214E0,4.398103237E0,-4.273014069E0
7.044412933E0,-5.932916164E0,3.657166958E0,-3.584025860E0
7.049409808E0,-5.415976048E0,2.879409790E0,-3.429319620E0
7.054406683E0,-3.658985853E0,2.030858040E0,-4.355546474E0
7.059403558E0,-1.609697938E0,1.033020973E0,-6.540103436E0
7.064400433E0,-5.884499550E-1,-3.256797791E-3,-8.618582726E0
7.069397308E0,1.707351357E-1,-1.175812721E0,-9.456658363E0
7.074394183E0,4.398967922E-1,-2.118625641E0,-9.418067932E0
7.079391058E0,4.454221129E-1,-2.621601105E0,-9.530975342E0
7.084387933E0,8.124712706E-1,-2.936592102E0,-9.496265411E0
7.089384808E0,1.450410485E0,-3.388940811E0,-9.242953300E0
7.094381683E0,2.661051512E0,-4.351107597E0,-8.975799561E0
7.099378558E0,4.539028168E0,-5.805146217E0,-8.695781708E0
7.104375433E0,6.868318081E0,-7.560709953E0,-8.207309723E0
7.109372308E0,8.982618332E0,-9.052388191E0,-7.345712185E0
7.114369183E0,1.080901718E1,-1.007009411E1,-5.495486736E0
7.119366318E0,1.216418457E1,-1.043044758E1,-2.801909447E0
7.124363454E0,1.303087997E1,-1.018476105E1,-7.452862263E-1
7.129360589E0,1.367573261E1,-9.343532562E0,6.367751360E-1
7.134357725E0,1.383609581E1,-7.912398338E0,1.277026534E0
7.139354860E0,1.279170418E1,-5.665343285E0,1.591063738E0
7.144351995E0,1.041995716E1,-2.847841263E0,1.770403385E0
7.149349131E0,8.091644287E0,-6.549396515E-1,2.030866146E0
7.154346266E0,6.322195053E0,5.693550110E-1,2.308086872E0
7.159343402E0,5.051981926E0,1.204186440E0,2.426208973E0
7.164340537E0,3.882620573E0,1.702411652E0,2.403601646E0
7.169337673E0,2.755826950E0,2.057083607E0,2.338414192E0
7.174334808E0,1.735412598E0,2.144108295E0,2.324660540E0
7.179331943E0,1.018025279E0,2.284650326E0,1.991186857E0
7.184329027E0,1.602187753E-1,2.225181103E0,1.481751442E0
7.189325902E0,-7.818912268E-1,2.092818737E0,1.132306457E0
7.194322777E0,-1.206835508E0,2.143694878E0,1.229884624E0
7.199319652E0,-2.132337093E0,2.188644409E0,1.114211440E0
7.204316527E0,-3.230700970E0,2.349759102E0,9.496860504E-1
7.209313402E0,-3.733872652E0,2.576754570E0,1.329747915E0
7.214310277E0,-4.027039051E0,2.762057781E0,1.631133318E0
7.219307152E0,-4.587913036E0,2.992015839E0,1.325967431E0
7.224304027E0,-4.927120686E0,3.240394592E0,7.863138914E-1
7.229300902E0,-4.877847195E0,3.342166901E0,3.863506019E-1
7.234297777E0,-4.623966694E0,3.125270844E0,1.576549262E-1
7.239294652E0,-4.370147228E0,2.571002007E0,4.443794489E-2
7.244291527E0,-4.274666309E0,1.818582058E0,4.747581780E-1
7.249288402E0,-4.045084953E0,1.229507446E0,8.190813065E-1
7.254285277E0,-3.662520170E0,1.016506195E0,1.266961813E0
7.259282152E0,-3.644050360E0,1.193427086E0,1.539210796E0
7.264279027E0,-3.388494730E0,1.506112099E0,1.665707827E0
7.269275902E0,-3.383250952E0,1.729440689E0,1.711846113E0
7.274272777E0,-3.487847805E0,1.813280106E0,1.895117760E0
7.279269652E0,-3.333748102E0,1.774545670E0,2.090426445E0
7.284266527E0,-3.026816845E0,1.816683292E0,1.946286440E0
7.289263402E0,-2.434339523E0,1.999316216E0,1.604573965E0
7.294260277E0,-1.629665256E0,2.106917381E0,1.158640146E0
7.299257152E0,-9.109604359E-1,2.086911678E0,6.230167747E-1
7.304254027E0,-3.217180371E-1,1.929945469E0,2.914426327E-1
7.309250902E0,-7.228651643E-2,1.865937233E0,2.874623537E-1
7.314247777E0,-3.722435236E-2,1.799217701E0,6.501994729E-1
7.319244652E0,4.457506537E-2,1.615015030E0,1.103755474E0
7.324241527E0,1.010780185E-1,1.339838028E0,1.425415277E0
7.329238402E0,6.795606017E-2,1.057554245E0,1.675157547E0
7.334235277E0,-6.375759840E-3,7.178888321E-1,1.815079331E0
7.339232152E0,3.113141656E-2,4.309196472E-1,1.747566581E0
7.344229027E0,3.280396163E-1,2.133932114E-1,1.676052094E0
7.349225902E0,7.693399191E-1,1.872835159E-1,1.712751627E0
7.354222777E0,1.163603544E0,2.686805725E-1,1.783017993E0
7.359219652E0,1.666047812E0,3.138713837E-1,1.753197551E0
7.364216527E0,2.278095245E0,2.391586304E-1,1.702768564E0
7.369213506E0,2.917986870E0,1.830673218E-2,1.661031127E0
7.374210902E0,3.472419739E0,-3.222389221E-1,1.614316702E0
7.379208298E0,4.084356785E0,-8.805170059E-1,1.611324549E0
7.384205693E0,4.614340782E0,-1.388211250E0,1.733287454E0
7.389203089E0,5.117181778E0,-1.924127579E0,1.943463564E0
7.394200485E0,5.521100521E0,-2.389986038E0,2.188627005E0
7.399197881E0,5.802196503E0,-2.706730843E0,2.362821579E0
7.404195277E0,5.979533672E0,-2.869660378E0,2.487563848E0
7.409192152E0,6.009684563E0,-2.929136276E0,2.622846127E0
7.414189027E0,5.971725464E0,-2.885256767E0,2.728092670E0
7.419185902E0,5.863336086E0,-2.826582909E0,2.827060461E0
7.424182777E0,5.807164192E0,-2.858303070E0,2.936016798E0
7.429179652E0,5.862421989E0,-3.020757675E0,2.970735312E0
7.434176527E0,5.978623390E0,-3.260943413E0,2.973769665E0
7.439173402E0,6.091242790E0,-3.504600525E0,2.885460615E0
7.444170277E0,5.980700016E0,-3.591647148E0,2.680344582E0
7.449167152E0,5.647596359E0,-3.591964722E0,2.503226042E0
7.454164027E0,5.258248329E0,-3.513234138E0,2.383894682E0
7.459160902E0,4.749443054E0,-3.466192245E0,1.976985812E0
7.464157777E0,4.329302311E0,-3.254823685E0,1.807611108E0
7.469154652E0,3.918205023E0,-3.072921753E0,2.135648251E0
7.474151527E0,3.541740179E0,-2.836011887E0,3.147161484E0
7.479148402E0,3.094574690E0,-2.619921684E0,4.501081944E0
7.484145277E0,2.459897995E0,-2.397674561E0,5.842983246E0
7.489142152E0,1.913441658E0,-2.216636658E0,6.525120258E0
7.494139027E0,1.670616269E0,-2.286766052E0,6.881366253E0
7.499135902E0,1.889066696E0,-2.616853714E0,7.374535561E0
7.504132777E0,2.389562845E0,-3.500779152E0,7.604155540E0
7.509129652E0,2.895431042E0,-4.390260696E0,7.184196472E0
7.514126527E0,3.843035221E0,-5.003408432E0,6.181822300E0
7.519123402E0,4.012934208E0,-5.398503304E0,4.958577633E0
7.524120277E0,4.072191238E0,-5.439801216E0,3.822496414E0
7.529117152E0,3.936602592E0,-5.273808479E0,3.120626211E0
7.534114027E0,3.764744282E0,-5.235918045E0,2.845260859E0
7.539110902E0,3.633760929E0,-5.139470100E0,2.725120544E0
7.544107777E0,3.897474766E0,-5.539722443E0,2.843627453E0
7.549104652E0,4.367947578E0,-5.706533432E0,2.949548006E0
7.554101527E0,4.394991875E0,-5.635910034E0,2.890813589E0
7.559098402E0,3.805153131E0,-5.405219078E0,2.838012934E0
7.564095277E0,2.551245689E0,-4.629808426E0,2.784270763E0
7.569092152E0,1.698982120E0,-3.884443283E0,2.742813826E0
7.574089027E0,1.479699373E0,-3.628234863E0,3.218945503E0
7.579085902E0,3.979278803E-1,-3.143043518E0,3.290069342E0
7.584082777E0,-7.592663765E-1,-2.625584602E0,2.739017487E0
7.589079652E0,-1.110666752E0,-2.489963531E0,2.140460491E0
7.594076527E0,-9.335458279E-1,-2.499026299E0,1.341503143E0
7.599073402E0,-4.407435060E-1,-2.602624893E0,3.434464335E-1
7.604070277E0,1.316757649E-1,-2.719575882E0,-7.828234434E-1
7.609067152E0,4.863461852E-1,-2.929061890E0,-1.930604935E0
7.614064027E0,5.678318739E-1,-3.152236938E0,-3.109874487E0
7.619062464E0,5.486490726E-1,-3.362891197E0,-4.282941818E0
7.624061162E0,5.059258938E-1,-3.517990112E0,-5.276362419E0
7.629058298E0,5.770900846E-2,-3.593629837E0,-5.762214184E0
7.634055173E0,-4.362161756E-1,-3.778833389E0,-5.963773727E0
7.639052048E0,-8.350931406E-1,-4.073402405E0,-5.634183407E0
7.644048923E0,-1.383948326E0,-4.228395462E0,-4.973556042E0
7.649045798E0,-2.092294693E0,-4.105280876E0,-4.303043842E0
7.654042673E0,-2.927989721E0,-3.917371750E0,-3.717703104E0
7.659039548E0,-3.782051802E0,-3.705399513E0,-3.149580717E0
7.664036423E0,-4.407295227E0,-3.498034477E0,-2.581118822E0
7.669033298E0,-4.867969036E0,-3.491350174E0,-1.942244172E0
7.674030173E0,-5.123554230E0,-3.395420074E0,-1.334846258E0
7.679027048E0,-5.007857800E0,-3.370596886E0,-7.090758085E-1
7.684023923E0,-4.846006870E0,-3.189487457E0,7.804000378E-2
7.689020798E0,-4.505467892E0,-2.938413620E0,4.852554798E-1
7.694017673E0,-3.995110989E0,-2.624723434E0,7.562454939E-1
7.699014548E0,-3.402330637E0,-2.138426781E0,1.034770012E0
7.704011423E0,-3.673285484E0,-1.850409508E0,6.135178804E-1
7.709008298E0,-3.938269138E0,-1.724414825E0,2.090485096E-1
7.714005173E0,-3.795827627E0,-1.650130272E0,-1.763055325E-1
7.719002048E0,-3.762960196E0,-1.443184853E0,-7.697339058E-1
7.723998923E0,-3.696788549E0,-1.285385132E0,-1.620743036E0
7.728995798E0,-2.638535976E0,-1.228439331E0,-2.922196865E0
7.733992673E0,-1.277291536E0,-1.154560089E0,-5.852243900E0
7.738989548E0,-1.993635893E0,-1.068255424E0,-5.999441147E0
7.743986423E0,-3.032638073E0,-4.435033798E-1,-6.424309731E0
7.748983298E0,-3.082655668E0,-1.702833176E-1,-6.595942020E0
7.753980173E0,-2.035133123E0,-2.747182846E-1,-1.086713982E1
7.758977048E0,5.982520580E-1,-4.639835358E-1,-1.299503899E1
7.763973923E0,1.260794878E0,4.818105698E-1,-1.194608498E1
7.768970798E0,1.246066689E0,1.392872810E0,-1.074909496E1
7.773967673E0,1.737843990E0,2.150374889E0,-8.476583481E0
7.778964548E0,2.464654446E0,2.820154190E0,-5.804004669E0
7.783961423E0,2.833049774E0,3.156975269E0,-3.963080406E0
7.788958298E0,2.680672884E0,3.534407616E0,-2.514884949E0
7.793955173E0,3.013558388E0,3.335619450E0,-2.914254189E0
7.798952048E0,3.473027229E0,2.930187225E0,-2.872714996E0
7.803948923E0,3.475416422E0,2.912290096E0,-3.307755709E0
7.808945798E0,2.771623611E0,2.908026695E0,-3.621133089E0
7.813942673E0,2.451684475E0,2.838479042E0,-3.532870293E0
7.818939548E0,2.137758732E0,2.993511677E0,-3.875212193E0
7.823936423E0,1.639522195E0,3.217658997E0,-4.649171352E0
7.828933298E0,1.054583192E0,3.563648701E0,-5.817938805E0
7.833930173E0,5.444341898E-1,3.931237221E0,-6.516437531E0
7.838927048E0,5.285918713E-1,4.193946838E0,-6.593764305E0
7.843923923E0,3.880513310E-1,4.395497322E0,-6.827097893E0
7.848920798E0,1.482001543E-1,4.593997002E0,-7.080965996E0
7.853917673E0,-2.257302105E-1,4.856445312E0,-7.022952080E0
7.858914548E0,-1.052210569E0,5.582319260E0,-6.988480568E0
7.863911423E0,-1.555853128E0,6.158784866E0,-7.125422955E0
7.868910954E0,-1.824582338E0,6.526364326E0,-6.971577644E0
7.873908870E0,-1.991510987E0,6.838697433E0,-6.684705257E0
7.878906006E0,-2.098606586E0,7.040691853E0,-6.385014534E0
7.883902881E0,-2.160676241E0,7.225928783E0,-6.120122910E0
7.888899756E0,-2.171289682E0,7.380058289E0,-5.894860268E0
7.893896631E0,-2.123926401E0,7.393309116E0,-5.689510822E0
7.898893506E0,-1.998126864E0,7.438095570E0,-5.449102879E0
7.903890381E0,-1.896893144E0,7.473878860E0,-5.216286182E0
7.908887256E0,-1.791363597E0,7.443342209E0,-4.993093014E0
7.913884131E0,-1.781223297E0,7.418235779E0,-4.688601494E0
7.918881006E0,-1.655354738E0,7.283555031E0,-4.303015709E0
7.923877881E0,-1.508942246E0,7.036766052E0,-3.836762428E0
7.928874756E0,-1.315398335E0,6.627394676E0,-3.264197826E0
7.933871631E0,-1.013060808E0,6.000158310E0,-2.569594145E0
7.938868506E0,-5.378579497E-1,5.154740334E0,-1.673017502E0
7.943865381E0,-7.202234864E-2,4.251044273E0,-6.049945354E-1
7.948862256E0,-5.943179131E-4,3.345865726E0,7.425582409E-1
7.953859131E0,3.276257813E-1,2.292348862E0,2.330815792E0
7.958856006E0,6.544119716E-1,1.178196907E0,4.247366905E0
7.963852881E0,1.323877811E0,-4.546451569E-2,6.440273285E0
7.968849756E0,1.875910997E0,-1.317274094E0,8.910463333E0
7.973846631E0,2.544603348E0,-2.671241760E0,1.114087009E1
7.978843506E0,3.262427092E0,-4.282031059E0,1.275539494E1
7.983840381E0,3.426565647E0,-5.988649368E0,1.363862801E1
7.988837256E0,3.636068344E0,-7.758986473E0,1.367944908E1
7.993834131E0,3.893622637E0,-9.532124519E0,1.291333675E1
7.998831006E0,4.503307819E0,-1.124953461E1,1.188290215E1
8.003827881E0,4.741808891E0,-1.230031586E1,1.080177307E1
8.008824756E0,4.127225876E0,-1.246694851E1,9.698353767E0
8.013821631E0,3.270356655E0,-1.176960278E1,8.785874367E0
8.018818506E0,2.817682028E0,-1.040315342E1,8.040260315E0
8.023815381E0,2.268198490E0,-8.246861458E0,7.505671501E0
8.028812256E0,1.609471560E0,-6.065011978E0,7.009392738E0
8.033809131E0,9.192716479E-1,-4.295525551E0,6.285645008E0
8.038806006E0,1.913233548E-1,-2.939953804E0,5.230288506E0
8.043802881E0,-2.198702991E-1,-1.968928337E0,3.968447208E0
8.048799756E0,-5.534361601E-1,-1.348489761E0,2.918920517E0
8.053796631E0,-1.062174797E0,-9.895849228E-1,1.928455830E0
8.058793506E0,-1.661806583E0,-7.961254120E-1,9.755027294E-1
8.063790381E0,-2.201547384E0,-6.359138489E-1,4.902315140E-2
8.068787256E0,-3.028237343E0,-6.329994202E-1,-5.057725906E-1
8.073784131E0,-4.088034630E0,-8.562078476E-1,-7.794473171E-1
8.078781006E0,-5.141711712E0,-1.311925888E0,-1.079839230E0
8.083777881E0,-6.268293381E0,-1.977673531E0,-1.388496637E0
8.088774756E0,-7.281621456E0,-2.749584198E0,-1.780036211E0
8.093771631E0,-8.348349571E0,-3.519640923E0,-2.074165106E0
8.098768506E0,-8.758939743E0,-4.436664581E0,-1.714539766E0
8.103765381E0,-8.711617470E0,-5.525164604E0,-1.110485792E0
8.108762256E0,-7.993803978E0,-6.735611916E0,-8.053719997E-1
8.113759131E0,-7.467649460E0,-7.871268272E0,-1.701097488E-1
8.118759391E0,-6.927917957E0,-8.820497513E0,1.707564592E0
8.123756266E0,-5.826783657E0,-9.249284744E0,4.209916592E0
8.128753141E0,-3.609796286E0,-8.562076569E0,6.646871567E0
8.133750016E0,-1.951982141E0,-6.953166962E0,7.703250885E0
8.138746891E0,-1.753303647E0,-4.864131927E0,4.431624889E0
8.143743766E0,-2.698718786E0,-2.458346367E0,-1.614402533E0
8.148740641E0,-3.781350374E0,-2.927780151E-1,-6.258169651E0
8.153737516E0,-3.449468136E0,1.621084213E0,-9.935620308E0
8.158734391E0,-3.849637270E0,3.097051144E0,-1.237980270E1
8.163731266E0,-4.333499908E0,5.016861439E0,-1.358061028E1
8.168728141E0,-4.674635410E0,7.449239254E0,-1.599421215E1
8.173725016E0,-6.190684319E0,8.615959167E0,-1.673203659E1
8.178721891E0,-6.520957947E0,9.063501358E0,-1.481048775E1
8.183718766E0,-6.599796295E0,8.886569977E0,-1.210126686E1
8.188715641E0,-6.391518116E0,8.508708000E0,-9.985327721E0
8.193712516E0,-6.705011368E0,8.026185989E0,-8.162265778E0
8.198709391E0,-7.154933453E0,7.275379181E0,-6.580581665E0
8.203706266E0,-7.844262123E0,6.688803673E0,-5.711882591E0
8.208703141E0,-8.518527985E0,6.095988274E0,-4.514876366E0
8.213700016E0,-8.369312286E0,5.584565163E0,-3.096371889E0
8.218696891E0,-8.065681458E0,5.136977673E0,-2.103551865E0
8.223693766E0,-7.958007336E0,4.567821026E0,-1.390519381E0
8.228690641E0,-7.117989540E0,3.950409889E0,-1.135008335E0
8.233687516E0,-5.508711338E0,3.576072216E0,-2.116769314E0
8.238684391E0,-4.153886318E0,2.884514809E0,-4.026814461E0
8.243681266E0,-2.767414808E0,1.402103424E0,-6.207892418E0
8.248678141E0,-1.451927543E0,-3.488025665E-1,-7.974219799E0
8.253675016E0,-8.372348547E-2,-2.078538895E0,-9.420247078E0
8.258671891E0,1.374183774E0,-3.165393829E0,-1.032986546E1
8.263668766E0,2.799645185E0,-3.622532845E0,-1.112894726E1
8.268665641E0,4.379011154E0,-3.749850273E0,-1.167400455E1
8.273662516E0,5.815394402E0,-4.202382088E0,-1.202253342E1
8.278659391E0,7.559432983E0,-5.707604408E0,-1.247592449E1
8.283656266E0,8.747883797E0,-8.405717850E0,-1.316362000E1
8.288653141E0,1.040374279E1,-1.101942635E1,-1.309070396E1
8.293650016E0,1.211643314E1,-1.259206295E1,-1.059606171E1
8.298646891E0,1.335265160E1,-1.302189064E1,-7.927522182E0
8.303643766E0,1.390486526E1,-1.180834675E1,-5.603667736E0
8.308640641E0,1.347915936E1,-9.622043610E0,-2.772858143E0
8.313637516E0,1.384123039E1,-7.381530762E0,-1.690517664E-1
8.318634391E0,1.389766121E1,-4.899034500E0,1.324390769E0
8.323631266E0,1.267094040E1,-2.367360115E0,3.230174541E0
8.328628141E0,1.071409130E1,-3.803758621E-1,5.349576473E0
8.333625016E0,9.104736328E0,8.499403000E-1,7.357550621E0
8.338621891E0,7.698326111E0,1.643554688E0,8.917954445E0
8.343618766E0,5.679506302E0,1.932431698E0,9.679639816E0
8.348615641E0,3.716457844E0,2.332756042E0,9.274025917E0
8.353612516E0,2.204161406E0,2.978711128E0,8.570724487E0
8.358609391E0,8.563249707E-1,3.401180744E0,7.406219482E0
8.363606266E0,2.280781418E-1,3.358785629E0,5.817760468E0
8.368607568E0,-4.146355391E-1,2.976360321E0,4.133500099E0
8.373604027E0,-1.275311828E0,2.617793560E0,2.641917467E0
8.378597777E0,-2.449237823E0,2.646634579E0,1.516076684E0
8.383591527E0,-3.362442493E0,2.559988976E0,1.002186060E0
8.388585485E0,-3.513043642E0,2.147564888E0,8.860838413E-1
8.393579704E0,-3.550874949E0,1.680288315E0,9.815632105E-1
8.398574391E0,-3.502884388E0,1.153560638E0,1.378682733E0
8.403569600E0,-3.426431179E0,7.971458435E-1,1.441410065E0
8.408565329E0,-3.329380751E0,5.916662216E-1,1.300292253E0
8.413561579E0,-3.303363562E0,1.922750473E-1,9.335834980E-1
8.418558350E0,-3.194216967E0,1.231451035E-1,5.785850883E-1
8.423555641E0,-3.318595886E0,1.948423386E-1,5.462975502E-1
8.428553454E0,-3.702967167E0,3.233699799E-1,5.618960857E-1
8.433551787E0,-4.020957947E0,4.582719803E-1,3.033806682E-1
8.438550641E0,-4.193967819E0,6.449451447E-1,-2.325224876E-2
8.443549808E0,-4.567066669E0,8.138837814E-1,-2.314652205E-1
8.448549235E0,-4.662959576E0,1.142207146E0,-3.415925503E-1
8.453548714E0,-4.635631561E0,1.467146873E0,-9.433937073E-2
8.458548193E0,-4.773911953E0,1.862983227E0,3.005957603E-1
8.463547673E0,-4.835600853E0,2.252996445E0,4.629228711E-1
8.468545068E0,-4.768491268E0,2.536592960E0,3.743050098E-1
8.473541943E0,-4.520111084E0,2.687490940E0,3.798063993E-1
8.478538818E0,-4.166962624E0,2.617300987E0,6.226185560E-1
8.483535693E0,-3.537240028E0,2.405364037E0,1.120604515E0
8.488532568E0,-2.562951565E0,2.095169544E0,1.790685534E0
8.493529443E0,-1.417923331E0,1.603358269E0,2.495166540E0
8.498526318E0,-3.806317747E-1,1.243724823E0,3.008692741E0
8.503523193E0,4.986169040E-1,8.295297623E-1,3.171277046E0
8.508520068E0,1.172390103E0,4.181766510E-1,3.070074558E0
8.513516943E0,1.641286135E0,1.027793884E-1,2.737428904E0
8.518513818E0,2.160838842E0,-1.408081055E-1,2.404004335E0
8.523510693E0,2.687308550E0,-2.959289551E-1,2.163306236E0
8.528507568E0,3.089078426E0,-3.698997498E-1,2.013014078E0
8.533504443E0,3.426330090E0,-4.464607239E-1,1.974064946E0
8.538501318E0,3.925976753E0,-5.781145096E-1,2.062718391E0
8.543498193E0,4.493803501E0,-7.933893204E-1,2.180648565E0
8.548495068E0,5.111847401E0,-1.111248970E0,2.311376572E0
8.553491943E0,5.695818901E0,-1.438132286E0,2.509831429E0
8.558488818E0,6.173819542E0,-1.766739845E0,2.754254103E0
8.563485693E0,6.545608521E0,-2.099348068E0,2.956006050E0
8.568482568E0,6.775331020E0,-2.366353989E0,3.200720072E0
8.573479443E0,6.936908722E0,-2.582034111E0,3.373317957E0
8.578476318E0,7.022794724E0,-2.803716660E0,3.363709211E0
8.583473193E0,7.039847374E0,-3.024207115E0,3.234709024E0
8.588470068E0,7.133641243E0,-3.224327087E0,3.053736925E0
8.593466943E0,7.304268837E0,-3.375645638E0,2.809908152E0
8.598463818E0,7.041563988E0,-3.395095825E0,2.306135416E0
8.603460693E0,6.530539989E0,-3.386001587E0,1.797266245E0
8.608457568E0,6.223140240E0,-3.374551773E0,1.723191738E0
8.613454443E0,6.034731865E0,-3.307806015E0,2.013193130E0
8.618456839E0,5.950580597E0,-3.228533745E0,2.467106342E0
8.623451214E0,5.777065754E0,-3.275107384E0,2.841567039E0
8.628441787E0,5.566901207E0,-3.334647179E0,3.104700089E0
8.633432620E0,5.406145573E0,-3.385292053E0,3.116935730E0
8.638423923E0,5.372803211E0,-3.641901016E0,3.169273615E0
8.643415954E0,5.572722435E0,-3.948199272E0,3.306143999E0
8.648408975E0,5.705694199E0,-4.107862473E0,3.223602295E0
8.653403037E0,5.560776711E0,-4.030411720E0,2.831864119E0
8.658398141E0,5.234272003E0,-3.821794510E0,2.402574062E0
8.663394287E0,4.951213837E0,-3.855614662E0,2.125174522E0
8.668391475E0,4.759406090E0,-4.248998642E0,1.841814995E0
8.673389704E0,4.564377308E0,-4.800614357E0,1.880436063E0
8.678388975E0,4.726502419E0,-5.384053230E0,1.944890261E0
8.683389079E0,3.787793159E0,-5.990078926E0,2.006565809E0
8.688389964E0,3.359116316E0,-6.654514313E0,2.578692913E0
8.693391423E0,2.324781895E0,-6.817261696E0,3.603833199E0
8.698393193E0,1.081145048E0,-6.679637909E0,4.777689934E0
8.703395016E0,-1.183016300E-1,-6.349273682E0,6.045009136E0
8.708396839E0,-9.189863205E-1,-5.967207909E0,7.121251106E0
8.713394704E0,-1.557928920E0,-5.372948647E0,7.994920254E0
8.718391579E0,-1.849315405E0,-4.830071449E0,8.457278252E0
8.723388454E0,-1.820497870E0,-4.472964287E0,8.296067238E0
8.728385329E0,-1.577610493E0,-4.139495850E0,7.609226227E0
8.733382204E0,-1.598374486E0,-3.629586220E0,6.397124290E0
8.738379079E0,-1.903007984E0,-2.972941399E0,5.162384033E0
8.743375954E0,-1.743754864E0,-2.526836395E0,3.966800451E0
8.748372829E0,-1.023126006E0,-2.561870575E0,2.769248962E0
8.753369704E0,-3.297708333E-1,-2.613705635E0,1.351465940E0
8.758366579E0,2.584162056E-1,-2.670719147E0,-2.956097722E-1
8.763363454E0,8.298666477E-1,-2.800045013E0,-1.952279806E0
8.768360329E0,7.298779488E-1,-2.893913269E0,-3.385969162E0
8.773357204E0,1.841260046E-1,-3.277673721E0,-4.223652363E0
8.778354079E0,-4.313158393E-1,-3.649450302E0,-4.970771313E0
8.783350954E0,-1.507554293E0,-3.798654556E0,-5.631110668E0
8.788347829E0,-2.858726025E0,-3.895301819E0,-6.168800831E0
8.793344704E0,-4.148503780E0,-3.927340508E0,-6.226991177E0
8.798341579E0,-5.506545067E0,-3.739132881E0,-6.147436142E0
8.803338454E0,-6.808218956E0,-3.457492828E0,-5.714212418E0
8.808335329E0,-7.803411961E0,-3.175590515E0,-5.013506413E0
8.813332204E0,-8.351314545E0,-2.890896797E0,-4.005663872E0
8.818329079E0,-8.667679787E0,-2.555523872E0,-2.570036173E0
8.823325954E0,-8.653378487E0,-2.243857384E0,-1.094217658E0
8.828322829E0,-8.041115761E0,-2.190629005E0,3.071854115E-1
8.833319704E0,-7.132565975E0,-2.087152481E0,1.491901278E0
8.838316579E0,-6.537862301E0,-2.101027489E0,1.941474557E0
8.843313454E0,-6.094250679E0,-2.225020409E0,2.108860254E0
8.848310329E0,-5.177516460E0,-2.327357292E0,1.987753272E0
8.853307204E0,-4.383946419E0,-2.465322495E0,1.459688544E0
8.858304079E0,-3.984618187E0,-2.463977814E0,7.678582668E-1
8.863300954E0,-3.685791731E0,-2.579085350E0,-4.160366058E-1
8.868298037E0,-3.006155252E0,-2.278712273E0,-2.299413204E0
8.873295173E0,-2.873546124E0,-2.094035149E0,-3.999848843E0
8.878292308E0,-2.953197241E0,-1.541110039E0,-5.251006126E0
8.883289443E0,-2.453976154E0,-1.172717094E0,-6.132101059E0
8.888286579E0,-2.176074982E0,-8.198194504E-1,-7.682923317E0
8.893283714E0,-1.019729614E0,-1.247940063E0,-1.194880486E1
8.898280850E0,1.875087023E0,-2.113307953E0,-1.422970295E1
8.903277985E0,2.366064310E0,-1.764036179E0,-1.468311787E1
8.908274860E0,4.872065067E0,-6.573200226E-1,-1.447356987E1
8.913271735E0,4.806052208E0,9.474706650E-1,-1.162408161E1
8.918268610E0,5.098947048E0,2.013225079E0,-6.893969536E0
8.923265485E0,6.106431007E0,2.676495075E0,-2.280174971E0
8.928262360E0,5.261937618E0,2.986946106E0,9.206738472E-1
8.933259235E0,4.357219219E0,3.246915817E0,1.174462318E0
8.938256110E0,3.711407423E0,3.388414860E0,1.286509037E-1
8.943252985E0,3.137042761E0,3.401613235E0,-2.017627001E0
8.948249860E0,2.497047663E0,3.330848217E0,-3.542236567E0
8.953246735E0,2.375003815E0,3.162270069E0,-4.251303673E0
8.958243610E0,2.082808971E0,2.917805195E0,-4.853574276E0
8.963240485E0,1.930027723E0,2.635779381E0,-5.088684559E0
8.968237360E0,1.769358039E0,2.732494354E0,-5.505162239E0
8.973234235E0,1.470004320E0,2.920568943E0,-5.968459129E0
8.978231110E0,9.640038610E-1,3.248002052E0,-6.621533394E0
8.983227985E0,4.414144456E-1,3.617069721E0,-7.149609566E0
8.988224860E0,1.608540714E-1,4.033219337E0,-7.757157326E0
8.993221735E0,5.625112355E-2,4.403460026E0,-8.096621513E0
8.998218610E0,-1.637735367E-1,4.752194881E0,-8.170119286E0
9.003215485E0,-3.395882547E-1,5.062969208E0,-8.176242828E0
9.008212360E0,-6.145238876E-1,5.462525368E0,-8.058030128E0
9.013209235E0,-1.009881973E0,5.905126095E0,-7.806538582E0
9.018206110E0,-1.406492591E0,6.290390015E0,-7.615513802E0
9.023202985E0,-1.542029142E0,6.670971870E0,-7.446830750E0
9.028199860E0,-1.625696659E0,6.968047619E0,-7.281167507E0
9.033196735E0,-1.591191530E0,7.148292542E0,-7.154332161E0
9.038193610E0,-1.544867516E0,7.300537109E0,-6.972699165E0
9.043190485E0,-1.446426392E0,7.422659874E0,-6.716655254E0
9.048187360E0,-1.351508856E0,7.529138565E0,-6.450649261E0
9.053184235E0,-1.275027037E0,7.660938263E0,-6.159612179E0
9.058181110E0,-1.204922915E0,7.775014877E0,-5.862298012E0
9.063177985E0,-1.193507075E0,7.880867958E0,-5.469972610E0
9.068174860E0,-1.209058762E0,7.844251156E0,-4.911067963E0
9.073171735E0,-1.318238497E0,7.703159809E0,-4.152793884E0
9.078168610E0,-1.257936001E0,7.347311497E0,-3.411029577E0
9.083165485E0,-6.365577579E-1,6.534785271E0,-2.775095701E0
9.088162360E0,-4.668532014E-1,5.612236500E0,-1.621920109E0
9.093159235E0,-6.209266186E-1,4.767615795E0,-2.413868904E-2
9.098156110E0,-6.709435582E-1,3.827341080E0,1.868831158E0
9.103152985E0,-2.785979509E-1,2.658656597E0,3.935733318E0
9.108149860E0,3.910998106E-1,1.365787506E0,6.394474030E0
9.113146735E0,9.597848654E-1,-9.788990021E-2,9.323323250E0
9.118143610E0,6.959614754E-1,-1.803146362E0,1.283515549E1
9.123141266E0,5.488269329E-1,-3.935728073E0,1.711607170E1
9.128138923E0,7.626233101E-1,-6.579966545E0,2.125405693E1
9.133136162E0,1.164302945E0,-9.796275139E0,2.303530693E1
9.138133089E0,1.895601511E0,-1.326274395E1,2.094876099E1
9.143129964E0,3.329021454E0,-1.591586399E1,1.688782692E1
9.148126839E0,3.751282930E0,-1.715338135E1,1.275586319E1
9.153123714E0,2.848812342E0,-1.687042618E1,8.977932930E0
9.158120589E0,3.133096933E0,-1.501872730E1,6.610341072E0
9.163117464E0,3.003973484E0,-1.183606911E1,5.523099899E0
9.168114339E0,2.824152470E0,-8.243949890E0,5.445755005E0
9.173111214E0,2.997455835E0,-5.056674957E0,5.438300133E0
9.178108089E0,2.940679789E0,-2.641754150E0,4.791481495E0
9.183104964E0,2.075245619E0,-9.638986588E-1,3.501370907E0
9.188101839E0,3.873490691E-1,9.907722473E-3,2.109817028E0
9.193098714E0,-2.024005413E0,1.756639481E-1,1.091571569E0
9.198095589E0,-3.701761246E0,-4.923563004E-1,6.003420353E-1
9.203092464E0,-4.114169121E0,-1.617704391E0,5.797355175E-1
9.208089339E0,-5.140913010E0,-2.962480545E0,2.192926407E-1
9.213086214E0,-6.906935215E0,-4.693622589E0,-6.305906773E-1
9.218083089E0,-8.513770103E0,-6.650760651E0,-1.341135979E0
9.223079964E0,-9.557483673E0,-8.552309990E0,-1.893699884E0
9.228076839E0,-1.045213604E1,-1.051037216E1,-1.647849083E0
9.233073714E0,-1.031033516E1,-1.197450066E1,-3.142220974E-1
9.238070589E0,-9.181404114E0,-1.241637993E1,1.190816641E0
9.243067464E0,-7.212632656E0,-1.050879955E1,3.133331776E0
9.248064339E0,-4.550099373E0,-6.667904854E0,4.187422276E0
9.253061214E0,-3.335287571E0,-2.747355461E0,2.072807312E0
9.258058089E0,-4.620363712E0,4.043540955E-1,-1.714174271E0
9.263054964E0,-6.458487034E0,2.739179611E0,-5.327624321E0
9.268051839E0,-6.462674618E0,4.125723362E0,-9.058298111E0
9.273048714E0,-5.799730778E0,5.271323204E0,-1.235729599E1
9.278045589E0,-5.569068432E0,6.624081612E0,-1.429133034E1
9.283042464E0,-5.120703697E0,8.175037384E0,-1.488461113E1
9.288039339E0,-4.874684334E0,9.237191200E0,-1.463970375E1
9.293036214E0,-4.577674389E0,9.577109337E0,-1.367944336E1
9.298033089E0,-4.034223557E0,9.685096741E0,-1.251889420E1
9.303029964E0,-4.386484623E0,9.170439720E0,-1.070788002E1
9.308026839E0,-5.293218613E0,8.318362236E0,-8.304511070E0
9.313023714E0,-5.534965515E0,7.500401974E0,-6.238871098E0
9.318020589E0,-5.492974281E0,6.745379448E0,-4.476179123E0
9.323017464E0,-5.045092583E0,6.002784252E0,-3.227074146E0
9.328014339E0,-4.304185390E0,5.162407875E0,-3.168262959E0
9.333011214E0,-3.579761028E0,4.441367626E0,-3.670361519E0
9.338008089E0,-3.453556299E0,3.259329796E0,-4.330960751E0
9.343004964E0,-3.319846630E0,1.986595631E0,-5.138380051E0
9.348001839E0,-2.420830488E0,1.031489372E0,-6.002002716E0
9.352998714E0,-1.378700018E0,-3.313827515E-2,-6.975527763E0
9.357995589E0,-1.457206905E-1,-1.358572006E0,-7.837403774E0
9.362992464E0,8.292520046E-1,-2.745469093E0,-8.800164223E0
9.367990589E0,1.223004699E0,-3.568812370E0,-9.642420769E0
9.372988141E0,1.474054098E0,-3.946664810E0,-9.934655190E0
9.377984756E0,1.660160303E0,-4.111523628E0,-9.509704590E0
9.382981370E0,2.253990889E0,-4.507965088E0,-9.111652374E0
9.387977985E0,3.422261715E0,-5.308959007E0,-9.068405151E0
9.392974600E0,5.238915443E0,-6.546421051E0,-9.038681984E0
9.397971214E0,6.987790585E0,-7.692871094E0,-8.317806244E0
9.402967829E0,8.400891304E0,-8.707439423E0,-7.227511406E0
9.407964443E0,9.533682823E0,-9.437303543E0,-5.802287579E0
9.412961058E0,1.050319195E1,-9.619989395E0,-3.452012539E0
9.417957673E0,1.136070538E1,-9.110326767E0,-1.423717856E0
9.422954287E0,1.181241512E1,-7.940535545E0,-5.924272537E-2
9.427950902E0,1.195951843E1,-6.331955910E0,1.010433078E0
9.432947516E0,1.132639694E1,-4.166049004E0,1.890717745E0
9.437944131E0,9.983450890E0,-1.912819862E0,2.479623556E0
9.442940745E0,8.335023880E0,-3.334684372E-1,2.813697338E0
9.447937360E0,6.868376255E0,4.075794220E-1,3.166224480E0
9.452933975E0,5.355592728E0,9.883508682E-1,3.452097893E0
9.457930589E0,3.761346102E0,1.588451385E0,3.391323328E0
9.462927204E0,2.276978254E0,2.143325329E0,3.051953793E0
9.467923818E0,1.314885855E0,2.681855202E0,2.836630344E0
9.472920433E0,8.357845545E-1,2.854926586E0,2.886445284E0
9.477917048E0,3.952028751E-1,2.754003525E0,2.861939192E0
9.482913870E0,-4.876349866E-1,2.723969460E0,2.777265549E0
9.487910954E0,-1.134650111E0,2.781626701E0,2.837857008E0
9.492908089E0,-1.557993531E0,2.592079639E0,2.664864540E0
9.497905225E0,-2.099921227E0,2.332813740E0,2.080346346E0
9.502902360E0,-2.414036274E0,1.908320904E0,9.759737849E-1
9.507899495E0,-2.720566511E0,1.871506214E0,1.003219634E-1
9.512896631E0,-3.218891382E0,2.123759747E0,-9.305964112E-1
9.517893766E0,-4.340176582E0,1.958959579E0,-1.428020716E0
9.522890902E0,-4.780427456E0,1.521245003E0,-1.062614083E0
9.527888037E0,-4.710806847E0,1.117191315E0,-8.154314160E-1
9.532885173E0,-4.667872429E0,1.031373024E0,-9.069930315E-1
9.537882308E0,-4.486310959E0,1.076702118E0,-8.935715556E-1
9.542879443E0,-4.011136532E0,1.276930809E0,-5.674874187E-1
9.547876579E0,-3.407899618E0,1.313744545E0,7.889747620E-2
9.552873714E0,-2.806996107E0,1.326146126E0,7.075837851E-1
9.557870850E0,-2.096308470E0,1.440911293E0,8.167960048E-1
9.562867985E0,-1.661941767E0,1.600502968E0,9.501441121E-1
9.567865120E0,-1.208069801E0,1.556109428E0,1.277038813E0
9.572862256E0,-7.079981565E-1,1.449134827E0,1.407191038E0
9.577859391E0,-4.680275917E-1,1.533131599E0,1.107479334E0
9.582856527E0,-1.335221231E-1,1.628316879E0,7.187476754E-1
9.587853662E0,-1.106329560E-1,1.703359604E0,2.206988335E-1
9.592850798E0,-2.147510648E-1,1.605102539E0,-1.593375206E-1
9.597847933E0,-3.481930196E-1,1.484461784E0,-3.594957590E-1
9.602845068E0,-4.110439718E-1,1.415754318E0,-2.495191097E-1
9.607842204E0,-5.785807967E-1,1.487675667E0,2.547572851E-1
9.612839339E0,-7.270166874E-1,1.446592331E0,7.790032029E-1
9.617838350E0,-9.114993811E-1,1.477058411E0,1.240908861E0
9.622834287E0,-1.252707958E0,1.471194267E0,1.523827434E0
9.627828558E0,-1.708380699E0,1.538931847E0,1.398823857E0
9.632822829E0,-1.837956309E0,1.522109032E0,1.139846802E0
9.637817308E0,-1.634618998E0,1.270044327E0,1.022337675E0
9.642812048E0,-1.328478813E0,1.034304619E0,1.038477898E0
9.647807048E0,-9.005338550E-1,6.642198563E-1,1.197177172E0
9.652802516E0,-4.325463772E-1,1.840038300E-1,1.469054937E0
9.657798506E0,1.805427670E-1,-2.554254532E-1,1.858562827E0
9.662795016E0,9.215484262E-1,-6.589097977E-1,2.224552393E0
9.667792048E0,1.870484591E0,-1.150675774E0,2.600129843E0
9.672789600E0,2.944584608E0,-1.641894341E0,3.068875790E0
9.677787464E0,3.860797405E0,-2.060643196E0,3.470262766E0
9.682785589E0,4.599351883E0,-2.442726135E0,3.873707771E0
9.687783975E0,5.289337158E0,-2.723336220E0,4.228409767E0
9.692782620E0,5.786639214E0,-2.923859596E0,4.569890976E0
9.697781318E0,6.110499382E0,-3.063317299E0,4.780515671E0
9.702780016E0,6.258698463E0,-3.134385109E0,4.903024673E0
9.707778714E0,6.174359322E0,-3.094076157E0,4.858684540E0
9.712777412E0,6.164026260E0,-3.181837082E0,4.585928917E0
9.717775068E0,6.105214596E0,-3.170255661E0,4.236279964E0
9.722772048E0,5.983637810E0,-3.119274139E0,3.819573164E0
9.727768923E0,5.771207333E0,-3.081813812E0,3.382042885E0
9.732765798E0,5.580811024E0,-3.122648239E0,2.986515045E0
9.737762673E0,5.539012909E0,-3.167581558E0,2.650088549E0
9.742759548E0,5.490140438E0,-3.219216347E0,2.395011902E0
9.747756423E0,5.394425392E0,-3.229933739E0,2.118679523E0
9.752753298E0,5.369333267E0,-3.259700775E0,1.888391018E0
9.757750173E0,5.445317268E0,-3.303461075E0,1.914085150E0
9.762747048E0,5.539916515E0,-3.358317375E0,2.057972670E0
9.767743923E0,5.602061272E0,-3.483530998E0,2.218093872E0
9.772740798E0,5.661710262E0,-3.568182945E0,2.476230860E0
9.777737673E0,5.753975868E0,-3.777046204E0,2.618538857E0
9.782734548E0,5.987727165E0,-3.983026505E0,2.585395575E0
9.787731423E0,6.123060703E0,-4.181646347E0,2.251306057E0
9.792728298E0,5.978544712E0,-4.261230469E0,1.635558128E0
9.797725173E0,5.681102276E0,-4.136278152E0,1.031835437E0
9.802722048E0,5.445739746E0,-4.058610916E0,7.259328365E-1
9.807718923E0,5.071784496E0,-4.293722153E0,1.030318737E0
9.812715798E0,4.412602901E0,-4.857963562E0,1.833097935E0
9.817712673E0,3.710947275E0,-5.528198242E0,2.950390577E0
9.822709548E0,3.372504234E0,-6.279905319E0,4.247734070E0
9.827706423E0,2.622073650E0,-6.720462799E0,5.577067375E0
9.832703298E0,1.543884277E0,-6.575019836E0,6.293319702E0
9.837700173E0,6.159906983E-1,-5.972883224E0,7.090459824E0
9.842697048E0,2.567925453E-1,-5.526726723E0,7.971289635E0
9.847693923E0,9.807622433E-2,-5.147701263E0,8.419609070E0
9.852690798E0,-3.047877550E-1,-4.744887352E0,8.827100754E0
9.857687673E0,-3.805337548E-1,-4.495813370E0,9.016995430E0
9.862684548E0,-5.297318697E-1,-4.200150490E0,8.579572678E0
9.867683714E0,-7.031499147E-1,-3.791852951E0,7.668319702E0
9.872681527E0,-8.148990870E-1,-3.298336983E0,6.494474888E0
9.877672673E0,-1.180147409E0,-2.617563248E0,5.229907513E0
9.882663975E0,-1.305360436E0,-2.161880493E0,4.015177250E0
9.887655693E0,-1.198250413E0,-1.917119026E0,2.727373123E0
9.892648089E0,-8.735366464E-1,-1.833089828E0,1.446608782E0
9.897641266E0,-3.112400472E-1,-1.897815704E0,1.353708506E-1
9.902635381E0,5.232099295E-1,-2.161587715E0,-1.352882147E0
9.907630537E0,1.138170838E0,-2.346734047E0,-2.995007753E0
9.912626735E0,1.268060088E0,-2.745219231E0,-4.326221943E0
9.917623975E0,8.753743768E-1,-3.131875038E0,-5.345938683E0
9.922622256E0,3.367613852E-1,-3.556886673E0,-6.080234528E0
9.927621423E0,-4.638567269E-1,-3.852630615E0,-6.521339893E0
9.932621370E0,-1.534494638E0,-3.923412323E0,-6.908211708E0
9.937621943E0,-2.715774536E0,-3.867398262E0,-6.864609718E0
9.942622881E0,-3.838983297E0,-3.713250160E0,-6.479581833E0
9.947624079E0,-4.974581242E0,-3.374775887E0,-5.799212933E0
9.952625381E0,-6.020147324E0,-2.890367508E0,-4.829320908E0
9.957625589E0,-7.158097267E0,-2.317474365E0,-3.847433567E0
9.962623506E0,-8.071825981E0,-2.062741280E0,-2.979615211E0
9.967620381E0,-8.334232330E0,-1.900768280E0,-2.058329105E0
9.972617256E0,-7.954776287E0,-1.762050629E0,-1.084350944E0
9.977614131E0,-7.588597298E0,-1.696823120E0,-8.706319332E-2
9.982611006E0,-6.993790150E0,-1.609423637E0,7.193489075E-1
9.987607881E0,-5.817148209E0,-1.760676384E0,1.344141483E0
9.992604756E0,-4.547672749E0,-2.023602486E0,1.374833226E0
9.997601631E0,-3.550481796E0,-2.395590782E0,1.051486015E0
1.000259851E1,-2.480886698E0,-2.847730637E0,2.856974602E-1
1.000759538E1,-1.300117731E0,-3.023253441E0,-4.212280512E-1
1.001259226E1,-1.101848483E0,-3.010635376E0,-1.629777908E0
1.001758913E1,-9.813615084E-1,-2.781243324E0,-2.824487686E0
1.002258601E1,-7.956696749E-1,-2.344809532E0,-3.751466751E0
1.002758288E1,-4.195336699E-1,-1.767961502E0,-4.964074135E0
1.003257976E1,1.442407370E-1,-1.265254974E0,-6.736837864E0
1.003757663E1,8.642852902E-1,-1.120100021E0,-8.683576584E0
1.004257351E1,3.205803633E0,-1.455128670E0,-1.021823502E1
1.004757038E1,5.537809849E0,-1.592528343E0,-1.045246983E1
1.005256726E1,4.255572796E0,-4.651937485E-1,-1.056335831E1
1.005756413E1,3.926336527E0,5.097646713E-1,-1.146287155E1
1.006256101E1,4.807532310E0,1.512006760E0,-9.007092476E0
1.006755788E1,3.793805599E0,2.404181957E0,-4.277465820E0
1.007255476E1,2.442505360E0,2.950896740E0,-1.040285349E0
1.007755163E1,1.263849378E0,3.390130997E0,-7.548415661E-1
1.008254851E1,1.361656189E0,3.256940365E0,-1.549052477E0
1.008754538E1,1.796539783E0,2.802109241E0,-2.843553543E0
1.009254226E1,1.666892052E0,2.653599739E0,-3.994403362E0
1.009753913E1,1.488331318E0,2.361938477E0,-4.677001476E0
1.010253601E1,1.381870151E0,2.406593800E0,-5.442986488E0
1.010753288E1,1.848880529E0,2.450225353E0,-6.195599556E0
1.011252976E1,1.810898781E0,2.622450829E0,-6.773706436E0
1.011752960E1,1.528518677E0,3.007102489E0,-7.145959377E0
1.012252762E1,1.048481703E0,3.439057350E0,-7.518057346E0
1.012751684E1,8.030080795E-1,3.822551727E0,-7.882970333E0
1.013250648E1,5.194022059E-1,4.284297943E0,-7.935019493E0
1.013749679E1,1.495512426E-1,4.769009590E0,-7.737381935E0
1.014248804E1,8.952233195E-2,5.116376877E0,-7.687777519E0
1.014748033E1,9.404945374E-2,5.479969025E0,-7.646851540E0
1.015247382E1,2.061450481E-2,5.888623238E0,-7.602590084E0
1.015746861E1,-1.580241323E-1,6.201508999E0,-7.461067200E0
1.016246470E1,-4.108137488E-1,6.454905510E0,-7.434835434E0
1.016746210E1,-7.447535992E-1,6.761558533E0,-7.379714966E0
1.017246080E1,-1.011697769E0,7.107193470E0,-7.214101315E0
1.017746064E1,-1.284124851E0,7.479897022E0,-6.878148079E0
1.018246137E1,-1.428004503E0,7.915606022E0,-6.457882881E0
1.018746288E1,-1.451118708E0,8.296937943E0,-6.056358337E0
1.019246502E1,-1.379957795E0,8.521012306E0,-5.620849609E0
1.019746752E1,-1.282056808E0,8.583070755E0,-5.249682426E0
1.020247012E1,-1.265196562E0,8.468947411E0,-4.856345177E0
1.020747085E1,-1.279309273E0,8.135464668E0,-4.426944733E0
1.021246877E1,-1.271141171E0,7.649595261E0,-3.899449348E0
1.021746564E1,-1.259460449E0,7.159371376E0,-3.257864237E0
1.022246252E1,-1.105988264E0,6.556699753E0,-2.390593529E0
1.022745939E1,-8.210120797E-1,5.860363007E0,-1.358685613E0
1.023245627E1,-7.066460848E-1,5.103348732E0,-7.999086380E-2
1.023745314E1,-5.489589572E-1,4.251324177E0,1.476591825E0
1.024245002E1,-3.189635873E-1,3.159734726E0,3.446348429E0
1.024744689E1,2.021262646E-1,1.722270966E0,5.896513939E0
1.025244377E1,8.324607611E-1,6.699371338E-2,8.959774971E0
1.025744064E1,1.406933188E0,-1.874849319E0,1.287182522E1
1.026243752E1,1.675580502E0,-4.157677650E0,1.762609100E1
1.026743439E1,1.682555914E0,-6.891445160E0,2.121969986E1
1.027243127E1,1.693930626E0,-1.009542751E1,2.163505173E1
1.027742814E1,1.729172707E0,-1.328284550E1,1.941899681E1
1.028242502E1,1.749402285E0,-1.579064369E1,1.609100151E1
1.028742189E1,1.249952197E0,-1.706702614E1,1.265749931E1
1.029241877E1,1.161618710E0,-1.683217239E1,9.311716080E0
1.029741564E1,1.555672526E0,-1.482677746E1,6.621134758E0
1.030241252E1,1.438691139E0,-1.159467697E1,5.378896713E0
1.030740939E1,8.079995513E-1,-8.028443336E0,5.249928474E0
1.031240627E1,8.644093275E-1,-5.028795242E0,5.288123131E0
1.031740314E1,7.368041277E-1,-2.569364548E0,5.260042191E0
1.032240002E1,-4.051348567E-1,-1.058797836E0,4.871697426E0
